accel_x,accel_y,accel_z,gyro_yaw,gyro_pitch,gyro_roll,mag_x,mag_y,mag_z,gps_pos_north,gps_pos_west,gps_pos_up,gps_vel_north,gps_vel_west,gps_vel_up,state_q_vec_w,state_q_vec_x,state_q_vec_y,state_q_vec_z,state_pos_north,state_pos_west,state_pos_up,state_vel_north,state_vel_west,state_vel_up,gyro_bias_yaw,gyro_bias_pitch,gyro_bias_roll,accel_bias_x,accel_bias_y,accel_bias_z,mag_bias_x,mag_bias_y,mag_bias_z,gimbal_yaw_raw,gimbal_pitch_raw,thrust_N,roll_rad_sec_squared,target_pos_north,target_pos_west,target_pos_up,elapsed_time,GND_flag,flight_armed,thrust_perc,diffy_perc,rtk_status,gps_hor_prec,gps_ver_prec,gps_sat_count,filtered_accel_x,filtered_accel_y,filtered_accel_z,filtered_gyro_x,filtered_gyro_y,filtered_gyro_z,filtered_mag_x,filtered_mag_y,filtered_mag_z,velocity_target_x,velocity_target_y,velocity_target_z,accel_target_x,accel_target_y,accel_target_z,attitude_target[0],attitude_target[1],attitude_target[2],attitude_target[3],velocity_integrator_x,velocity_integrator_y,velocity_integrator_z,attitude_integrator_x,attitude_integrator_y,attitude_integrator_z,posCovNN,posCovNE,posCovND,posCovEE,posCovED,posCovDD,velCovNN,velCovNE,velCovND,velCovEE,velCovED,velCovDD
0.03828691,-0.00239293,9.78469944,-0.00744958,0.00106423,-0.04576168,0.00000000,0.00000000,0.00000000,0.00000000,0.00000000,0.31000000,0.00000000,0.00000000,0.00000000,-0.98950619,0.00061870,0.00024235,0.14448927,0.00000282,-0.00009576,-0.00000003,-0.18758023,0.35234714,-0.00074722,-0.00884913,0.00334990,-0.03634576,0.03999563,0.01984022,-0.00714277,0.01855331,0.00772883,-0.00306154,0.00000000,0.00000000,0.00000000,0.00000000,0.00000000,0.00000000,0.00000000,0.00030000,0.00000000,1.00000000,0.00000000,0.00000000,1541405184.00000000,0.00000000,126088488780038144.00000000,123.00000000,0.99882847,0.99877900,1.01070046,0.99877280,0.99878317,0.99872619,0.99878186,0.99878186,0.99878186,-0.00000169,0.00005746,0.00000001,0.33766350,-0.63414925,9.80314445,0.99933094,0.03228879,0.01716971,0.00055476,0.00002213,-0.00002786,0.00000034,0.00000903,0.00000657,0.00004348,22217608.00000000,-0.00000000,-732586304.00000000,4283.56494141,-3211715521053458432.00000000,283622065221664768.00000000,0.00000000,0.00000000,73.00013733,-10134229811724288.00000000,17729922081629812686597420333662208.00000000,0.00000000
0.04067985,0.01914346,9.78469944,-0.00744958,0.00106423,-0.04044056,0.19879150,0.06756592,-0.44543457,0.00000000,-0.00000000,0.31000000,0.01400000,0.00300000,0.01800000,-0.98963702,-0.00035554,-0.00045497,0.14359078,-0.00030504,0.00046405,0.00000279,-0.18866314,0.37012035,0.00053156,-0.00884913,0.00334990,-0.03634576,0.03999563,0.01984022,-0.00714277,0.01855331,0.00772883,-0.00306154,0.00193076,0.00318772,13.89137554,0.52359879,0.00000000,0.00000000,1.50000000,0.00202200,0.00000000,1.00000000,88.98364258,30.00000000,1541405184.00000000,0.00000000,126088488780038144.00000000,123.00000000,0.99442416,0.99421149,1.05095720,0.99415606,0.99420530,0.99394029,0.99443990,0.99428099,0.99365991,0.00018302,-0.00027843,0.59999889,0.34003979,-0.66688716,11.12094784,0.99943531,0.02993955,0.01524867,0.00045680,0.00011670,-0.00016933,0.00061971,0.00005567,0.00003918,0.00029140,22217608.00000000,-0.00000000,-732586304.00000000,4283.56494141,-3211715521053458432.00000000,283622065221664768.00000000,0.00000000,0.00000000,73.00013733,-10134229811724288.00000000,17729922081629812686597420333662208.00000000,0.00000000
0.04067985,0.02392932,9.78948498,-0.00744958,0.00106423,-0.04256901,0.19879150,0.06756592,-0.44543457,0.00000000,-0.00000000,0.31000000,0.01400000,0.00300000,0.01800000,-0.98967934,-0.00068307,-0.00069619,0.14329667,-0.00041444,0.00067968,0.00000017,-0.18797489,0.37050217,-0.00451320,-0.00884913,0.00334990,-0.03634576,0.03999563,0.01984022,-0.00714277,0.01855331,0.00772883,-0.00306154,0.00379500,0.00708511,13.89169121,0.52359879,0.00000000,0.00000000,1.50000000,0.00260400,0.00000000,1.00000000,88.98793793,30.00000000,1541405184.00000000,0.00000000,126088488780038144.00000000,123.00000000,0.98613775,0.98566759,1.12675321,0.98546433,0.98558682,0.98493963,0.98672217,0.98596257,0.98299342,0.00024867,-0.00040781,0.59999996,0.33895195,-0.66785580,11.13226032,0.99943590,0.02995257,0.01518446,0.00045507,0.00014955,-0.00021785,0.00083080,0.00007125,0.00005001,0.00037502,22217608.00000000,-0.00000000,-732586304.00000000,4283.56494141,-3211715521053458432.00000000,283622065221664768.00000000,0.00000000,0.00000000,73.00013733,-10134229811724288.00000000,17729922081629812686597420333662208.00000000,0.00000000
0.02632225,0.00957173,9.80384254,-0.00744958,0.00106423,-0.03724788,0.19879150,0.06756592,-0.44543457,0.00000000,-0.00000000,0.31000000,0.01400000,0.00300000,0.01800000,-0.98972857,-0.00106696,-0.00097891,0.14295194,-0.00054378,0.00093601,-0.00000704,-0.18716803,0.37094936,-0.01042625,-0.00884913,0.00334990,-0.03634576,0.03999563,0.01984022,-0.00714277,0.01855331,0.00772883,-0.00306154,0.00559429,0.01158142,13.89208698,0.52359879,0.00000000,0.00000000,1.50000000,0.00329500,0.00000000,1.00000000,88.99333191,30.00000000,1541405184.00000000,0.00000000,126088488780038144.00000000,123.00000000,0.97402328,0.97322834,1.23748088,0.97277033,0.97299999,0.97180551,0.97584468,0.97394788,0.96653283,0.00032627,-0.00056160,0.60000283,0.33767831,-0.66899532,11.14552784,0.99943656,0.02996795,0.01510941,0.00045305,0.00018860,-0.00027560,0.00108389,0.00008952,0.00006263,0.00047406,22217608.00000000,-0.00000000,-732586304.00000000,4283.56494141,-3211715521053458432.00000000,283622065221664768.00000000,0.00000000,0.00000000,73.00013733,-10134229811724288.00000000,17729922081629812686597420333662208.00000000,0.00000000
0.04785864,-0.00957173,9.81341457,-0.00957803,0.00212845,-0.04363323,0.19543457,0.07250977,-0.44653320,0.00000000,-0.00000000,0.31000000,0.01400000,0.00300000,0.01800000,-0.98981822,-0.00177234,-0.00149835,0.14231844,-0.00078368,0.00141633,-0.00003455,-0.18568483,0.37176943,-0.02129082,-0.00884913,0.00334990,-0.03634576,0.03999563,0.01984022,-0.00714277,0.01855331,0.00772883,-0.00306154,0.00732918,0.01658641,13.89285660,0.52359879,0.00000000,0.00000000,1.50000000,0.00458700,0.00000000,1.00000000,89.00381470,30.00000000,1541405184.00000000,0.00000000,126088488780038144.00000000,123.00000000,0.95781642,0.95657176,1.38555419,0.95579994,0.95617682,0.95425802,0.96152145,0.95796895,0.94403470,0.00047021,-0.00084980,0.60001385,0.33534062,-0.67109859,11.16993618,0.99943781,0.02999647,0.01497206,0.00044936,0.00026157,-0.00038395,0.00156552,0.00012284,0.00008536,0.00065843,22217608.00000000,-0.00000000,-732586304.00000000,4283.56494141,-3211715521053458432.00000000,283622065221664768.00000000,0.00000000,0.00000000,73.00013733,-10134229811724288.00000000,17729922081629812686597420333662208.00000000,0.00000000
0.03589398,0.00239293,9.80384254,-0.01064225,0.00425690,-0.04363323,0.19543457,0.07250977,-0.44653320,0.00000000,-0.00000000,0.31000000,0.01400000,0.00300000,0.01800000,-0.98986584,-0.00215044,-0.00177676,0.14197886,-0.00091458,0.00167986,-0.00005374,-0.18488932,0.37220785,-0.02711440,-0.00884913,0.00334990,-0.03634576,0.03999563,0.01984022,-0.00714277,0.01855331,0.00772883,-0.00306154,0.00900817,0.02198906,13.89329243,0.52359879,0.00000000,0.00000000,1.50000000,0.00529500,0.00000000,1.00000000,89.00975037,30.00000000,1541405184.00000000,0.00000000,126088488780038144.00000000,123.00000000,0.93772823,0.93586212,1.56926572,0.93474531,0.93531841,0.93249404,0.94398582,0.93824804,0.91559517,0.00054875,-0.00100791,0.60002154,0.33409026,-0.67223191,11.18303108,0.99943841,0.03001192,0.01489878,0.00044739,0.00030174,-0.00044357,0.00183193,0.00014085,0.00009756,0.00075923,22217608.00000000,-0.00000000,-732586304.00000000,4283.56494141,-3211715521053458432.00000000,283622065221664768.00000000,0.00000000,0.00000000,73.00013733,-10134229811724288.00000000,17729922081629812686597420333662208.00000000,0.00000000
0.04785864,0.00957173,9.80862904,-0.00957803,0.00425690,-0.04150478,0.19543457,0.07250977,-0.44653320,0.00000000,-0.00000000,0.31000000,0.01400000,0.00300000,0.01800000,-0.98993069,-0.00267071,-0.00215983,0.14151157,-0.00109838,0.00205266,-0.00008887,-0.18379354,0.37280864,-0.03512768,-0.00884913,0.00334990,-0.03634576,0.03999563,0.01984022,-0.00714277,0.01855331,0.00772883,-0.00306154,0.01063679,0.02770562,13.89392757,0.52359879,0.00000000,0.00000000,1.50000000,0.00629500,0.00000000,1.00000000,89.01840210,30.00000000,1541405184.00000000,0.00000000,126088488780038144.00000000,123.00000000,0.91455758,0.91194427,1.78135228,0.91043597,0.91125524,0.90737319,0.92401212,0.91559803,0.88214916,0.00065903,-0.00123160,0.60003555,0.33237311,-0.67380047,11.20107269,0.99943924,0.03003349,0.01479834,0.00044470,0.00035850,-0.00052803,0.00221303,0.00016582,0.00011431,0.00090112,22217608.00000000,-0.00000000,-732586304.00000000,4283.56494141,-3211715521053458432.00000000,283622065221664768.00000000,0.00000000,0.00000000,73.00013733,-10134229811724288.00000000,17729922081629812686597420333662208.00000000,0.00000000
0.05264451,0.00000000,9.80144978,-0.00744958,0.00212845,-0.03831211,0.19714355,0.07342529,-0.44488525,0.00000000,-0.00000000,0.31000000,0.01400000,0.00300000,0.01800000,-0.99001110,-0.00332295,-0.00264005,0.14092574,-0.00133388,0.00253493,-0.00014719,-0.18241757,0.37355712,-0.04517327,-0.00884913,0.00334990,-0.03634576,0.03999563,0.01984022,-0.00714277,0.01855331,0.00772883,-0.00306154,0.01221834,0.03366119,13.89476585,0.52359879,0.00000000,0.00000000,1.50000000,0.00758600,0.00000000,1.00000000,89.02982330,30.00000000,1541405184.00000000,0.00000000,126088488780038144.00000000,123.00000000,0.88924605,0.88577372,2.01335955,0.88384527,0.88494706,0.87990743,0.90239954,0.89092565,0.84503013,0.00080033,-0.00152096,0.60005891,0.33022407,-0.67577803,11.22372437,0.99944031,0.03006083,0.01467301,0.00044133,0.00043187,-0.00063751,0.00271282,0.00019728,0.00013512,0.00108356,22217608.00000000,-0.00000000,-732586304.00000000,4283.56494141,-3211715521053458432.00000000,283622065221664768.00000000,0.00000000,0.00000000,73.00013733,-10134229811724288.00000000,17729922081629812686597420333662208.00000000,0.00000000
0.05264451,-0.00239293,9.80144978,-0.00957803,0.00319268,-0.04469746,0.19714355,0.07342529,-0.44488525,0.00000000,-0.00000000,0.31000000,0.01400000,0.00300000,0.01800000,-0.99005347,-0.00366979,-0.00289540,0.14061421,-0.00146269,0.00280006,-0.00018300,-0.18168458,0.37395245,-0.05051504,-0.00884913,0.00334990,-0.03634576,0.03999563,0.01984022,-0.00714277,0.01855331,0.00772883,-0.00306154,0.01375929,0.03976284,13.89523411,0.52359879,0.00000000,0.00000000,1.50000000,0.00829500,0.00000000,1.00000000,89.03620911,30.00000000,1541405184.00000000,0.00000000,126088488780038144.00000000,123.00000000,0.86235482,0.85786521,2.26038027,0.85553634,0.85694689,0.85067379,0.87952393,0.86472809,0.80521017,0.00087761,-0.00168004,0.60007322,0.32908431,-0.67683631,11.23578453,0.99944079,0.03007557,0.01460668,0.00043955,0.00047233,-0.00069787,0.00298958,0.00021433,0.00014632,0.00118353,22217608.00000000,-0.00000000,-732586304.00000000,4283.56494141,-3211715521053458432.00000000,283622065221664768.00000000,0.00000000,0.00000000,73.00013733,-10134229811724288.00000000,17729922081629812686597420333662208.00000000,0.00000000
0.03828691,0.00478586,9.79427147,-0.00957803,0.00319268,-0.03724788,0.19714355,0.07342529,-0.44488525,0.00000000,-0.00000000,0.31000000,0.01400000,0.00300000,0.01800000,-0.99011070,-0.00414203,-0.00324306,0.14019008,-0.00164338,0.00317454,-0.00024079,-0.18068409,0.37448567,-0.05778803,-0.00884913,0.00334990,-0.03634576,0.03999563,0.01984022,-0.00714277,0.01855331,0.00772883,-0.00306154,0.01526289,0.04595160,13.89590549,0.52359879,0.00000000,0.00000000,1.50000000,0.00929500,0.00000000,1.00000000,89.04534912,30.00000000,1541405184.00000000,0.00000000,126088488780038144.00000000,123.00000000,0.83395344,0.82830364,2.52163649,0.82559162,0.82734013,0.81975454,0.85536826,0.83705419,0.76300770,0.00098603,-0.00190473,0.60009634,0.32753560,-0.67828590,11.25223064,0.99944150,0.03009591,0.01451670,0.00043714,0.00052942,-0.00078323,0.00338431,0.00023796,0.00016168,0.00132411,22217608.00000000,-0.00000000,-732586304.00000000,4283.56494141,-3211715521053458432.00000000,283622065221664768.00000000,0.00000000,0.00000000,73.00013733,-10134229811724288.00000000,17729922081629812686597420333662208.00000000,0.00000000
0.04067985,-0.01675053,9.81102180,-0.00744958,0.00106423,-0.03831211,0.19860840,0.07257080,-0.44158936,0.00000000,-0.00000000,0.31000000,0.01400000,0.00300000,0.01800000,-0.99018091,-0.00472860,-0.00367487,0.13966328,-0.00187503,0.00365885,-0.00032706,-0.17943715,0.37513950,-0.06682162,-0.00884913,0.00334990,-0.03634576,0.03999563,0.01984022,-0.00714277,0.01855331,0.00772883,-0.00306154,0.01673078,0.05217719,13.89678288,0.52359879,0.00000000,0.00000000,1.50000000,0.01058600,0.00000000,1.00000000,89.05730438,30.00000000,1541405184.00000000,0.00000000,126088488780038144.00000000,123.00000000,0.80399555,0.79708093,2.79728699,0.79399455,0.79610384,0.78714055,0.82990062,0.80787319,0.71844506,0.00112502,-0.00219531,0.60013086,0.32561511,-0.68009645,11.27269650,0.99944234,0.03012144,0.01440540,0.00043415,0.00060320,-0.00089384,0.00390094,0.00026776,0.00018078,0.00150493,22217608.00000000,-0.00000000,-732586304.00000000,4283.56494141,-3211715521053458432.00000000,283622065221664768.00000000,0.00000000,0.00000000,73.00013733,-10134229811724288.00000000,17729922081629812686597420333662208.00000000,0.00000000
0.03350105,0.00957173,9.78948498,-0.00851380,0.00425690,-0.04150478,0.19860840,0.07257080,-0.44158936,0.00000000,-0.00000000,0.31000000,0.01400000,0.00300000,0.01800000,-0.99021769,-0.00503749,-0.00390224,0.13938591,-0.00200178,0.00392506,-0.00037781,-0.17877825,0.37547925,-0.07157861,-0.00884913,0.00334990,-0.03634576,0.03999563,0.01984022,-0.00714277,0.01855331,0.00772883,-0.00306154,0.01816597,0.05836768,13.89726734,0.52359879,0.00000000,0.00000000,1.50000000,0.01129500,0.00000000,1.00000000,89.06390381,30.00000000,1541405184.00000000,0.00000000,126088488780038144.00000000,123.00000000,0.77268904,0.76443446,3.08525538,0.76098889,0.76346940,0.75308120,0.80336189,0.77741390,0.67176938,0.00120107,-0.00235504,0.60015112,0.32460663,-0.68105650,11.28349304,0.99944282,0.03013509,0.01434705,0.00043259,0.00064387,-0.00095480,0.00418669,0.00028393,0.00019107,0.00160404,22217608.00000000,-0.00000000,-732586304.00000000,4283.56494141,-3211715521053458432.00000000,283622065221664768.00000000,0.00000000,0.00000000,73.00013733,-10134229811724288.00000000,17729922081629812686597420333662208.00000000,0.00000000
0.02153639,0.01914346,9.79187870,-0.00744958,0.00532113,-0.03937633,0.19860840,0.07257080,-0.44158936,0.00000000,-0.00000000,0.31000000,0.01400000,0.00300000,0.01800000,-0.99026680,-0.00545397,-0.00420880,0.13901196,-0.00217967,0.00430099,-0.00045580,-0.17788595,0.37592942,-0.07799225,-0.00884913,0.00334990,-0.03634576,0.03999563,0.01984022,-0.00714277,0.01855331,0.00772883,-0.00306154,0.01956654,0.06448498,13.89795494,0.52359879,0.00000000,0.00000000,1.50000000,0.01229500,0.00000000,1.00000000,89.07327271,30.00000000,1541405184.00000000,0.00000000,126088488780038144.00000000,123.00000000,0.74047989,0.73091125,3.38108754,0.72708261,0.72994488,0.71809518,0.77620655,0.74615926,0.62360215,0.00130780,-0.00258060,0.60018235,0.32325003,-0.68235898,11.29807854,0.99944335,0.03015373,0.01426865,0.00043049,0.00070126,-0.00104098,0.00459359,0.00030635,0.00020519,0.00174345,22217608.00000000,-0.00000000,-732586304.00000000,4283.56494141,-3211715521053458432.00000000,283622065221664768.00000000,0.00000000,0.00000000,73.00013733,-10134229811724288.00000000,17729922081629812686597420333662208.00000000,0.00000000
0.04307278,0.01196466,9.78948498,-0.00638535,0.00319268,-0.04150478,0.19995117,0.07196045,-0.44293213,0.00000000,-0.00000000,0.31000000,0.01400000,0.00300000,0.01800000,-0.99032664,-0.00596697,-0.00458637,0.13855140,-0.00240807,0.00478740,-0.00056677,-0.17678072,0.37647161,-0.08589211,-0.00884913,0.00334990,-0.03634576,0.03999563,0.01984022,-0.00714277,0.01855331,0.00772883,-0.00306154,0.02093012,0.07049512,13.89884663,0.52359879,0.00000000,0.00000000,1.50000000,0.01358700,0.00000000,1.00000000,89.08541870,30.00000000,1541405184.00000000,0.00000000,126088488780038144.00000000,123.00000000,0.70783091,0.69703388,3.68036079,0.69278276,0.69603431,0.68270439,0.74883753,0.71457547,0.57466578,0.00144484,-0.00287244,0.60022670,0.32158148,-0.68397194,11.31608772,0.99944401,0.03017688,0.01417242,0.00042792,0.00077548,-0.00115269,0.00512547,0.00033472,0.00022281,0.00192297,22217608.00000000,-0.00000000,-732586304.00000000,4283.56494141,-3211715521053458432.00000000,283622065221664768.00000000,0.00000000,0.00000000,73.00013733,-10134229811724288.00000000,17729922081629812686597420333662208.00000000,0.00000000
0.04785864,0.00239293,9.81820011,-0.00638535,0.00212845,-0.04150478,0.19995117,0.07196045,-0.44293213,0.00000000,-0.00000000,0.31000000,0.01400000,0.00300000,0.01800000,-0.99035764,-0.00623429,-0.00478311,0.13831146,-0.00253282,0.00505413,-0.00063050,-0.17620166,0.37674779,-0.09000850,-0.00884913,0.00334990,-0.03634576,0.03999563,0.01984022,-0.00714277,0.01855331,0.00772883,-0.00306154,0.02225748,0.07634035,13.89933491,0.52359879,0.00000000,0.00000000,1.50000000,0.01429500,0.00000000,1.00000000,89.09207153,30.00000000,1541405184.00000000,0.00000000,126088488780038144.00000000,123.00000000,0.67504150,0.66304171,3.98075080,0.65836304,0.66200119,0.64718324,0.72142929,0.68289644,0.52544004,0.00151969,-0.00303248,0.60025221,0.32071471,-0.68481857,11.32549286,0.99944437,0.03018913,0.01412249,0.00042658,0.00081628,-0.00121410,0.00541870,0.00035009,0.00023228,0.00202118,22217608.00000000,-0.00000000,-732586304.00000000,4283.56494141,-3211715521053458432.00000000,283622065221664768.00000000,0.00000000,0.00000000,73.00013733,-10134229811724288.00000000,17729922081629812686597420333662208.00000000,0.00000000
0.04785864,0.00000000,9.79666424,-0.00851380,0.00319268,-0.03937633,0.19995117,0.07196045,-0.44293213,0.00000000,-0.00000000,0.31000000,0.01400000,0.00300000,0.01800000,-0.99039882,-0.00659234,-0.00504660,0.13799018,-0.00270824,0.00543124,-0.00072602,-0.17542081,0.37710714,-0.09552167,-0.00884913,0.00334990,-0.03634576,0.03999563,0.01984022,-0.00714277,0.01855331,0.00772883,-0.00306154,0.02354560,0.08199999,13.90002441,0.52359879,0.00000000,0.00000000,1.50000000,0.01529500,0.00000000,1.00000000,89.10147095,30.00000000,1541405184.00000000,0.00000000,126088488780038144.00000000,123.00000000,0.64219922,0.62897754,4.28179550,0.62387782,0.62789905,0.61158633,0.69398731,0.65115815,0.47609025,0.00162494,-0.00325874,0.60029042,0.31955627,-0.68595964,11.33812332,0.99944478,0.03020573,0.01405581,0.00042480,0.00087393,-0.00130102,0.00583618,0.00037148,0.00024533,0.00215957,22217608.00000000,-0.00000000,-732586304.00000000,4283.56494141,-3211715521053458432.00000000,283622065221664768.00000000,0.00000000,0.00000000,73.00013733,-10134229811724288.00000000,17729922081629812686597420333662208.00000000,0.00000000
0.05025157,0.00000000,9.80623627,-0.00957803,0.00319268,-0.04682591,0.19580078,0.07122803,-0.44445801,0.00000000,-0.00000000,0.31000000,0.01400000,0.00300000,0.01800000,-0.99044871,-0.00702970,-0.00536841,0.13759784,-0.00293364,0.00591901,-0.00085813,-0.17445894,0.37753010,-0.10225552,-0.00884913,0.00334990,-0.03634576,0.03999563,0.01984022,-0.00714277,0.01855331,0.00772883,-0.00306154,0.02479394,0.08745679,13.90091324,0.52359879,0.00000000,0.00000000,1.50000000,0.01658700,0.00000000,1.00000000,89.11357880,30.00000000,1541405184.00000000,0.00000000,126088488780038144.00000000,123.00000000,0.60935730,0.59488881,4.58311749,0.58936262,0.59376931,0.57595062,0.66653556,0.61939418,0.42667812,0.00176019,-0.00355141,0.60034329,0.31814286,-0.68736029,11.35359859,0.99944532,0.03022613,0.01397457,0.00042263,0.00094847,-0.00141363,0.00638084,0.00039859,0.00026166,0.00233788,22217608.00000000,-0.00000000,-732586304.00000000,4283.56494141,-3211715521053458432.00000000,283622065221664768.00000000,0.00000000,0.00000000,73.00013733,-10134229811724288.00000000,17729922081629812686597420333662208.00000000,0.00000000
0.05025157,0.00239293,9.80862904,-0.00744958,0.00532113,-0.04256901,0.19580078,0.07122803,-0.44445801,0.00000000,-0.00000000,0.31000000,0.01400000,0.00300000,0.01800000,-0.99047434,-0.00725559,-0.00553461,0.13739529,-0.00305680,0.00618645,-0.00093299,-0.17395796,0.37774026,-0.10573319,-0.00884913,0.00334990,-0.03634576,0.03999563,0.01984022,-0.00714277,0.01855331,0.00772883,-0.00306154,0.02600667,0.09266659,13.90139675,0.52359879,0.00000000,0.00000000,1.50000000,0.01729500,0.00000000,1.00000000,89.12016296,30.00000000,1541405184.00000000,0.00000000,126088488780038144.00000000,123.00000000,0.57670295,0.56094432,4.88319588,0.55499166,0.55978596,0.54044896,0.63922870,0.58777142,0.37739581,0.00183408,-0.00371187,0.60037321,0.31741509,-0.68808937,11.36161518,0.99944556,0.03023683,0.01393276,0.00042152,0.00098943,-0.00147550,0.00668079,0.00041330,0.00027045,0.00243544,22217608.00000000,-0.00000000,-732586304.00000000,4283.56494141,-3211715521053458432.00000000,283622065221664768.00000000,0.00000000,0.00000000,73.00013733,-10134229811724288.00000000,17729922081629812686597420333662208.00000000,0.00000000
0.04307278,0.01196466,9.79905701,-0.00744958,0.00212845,-0.03831211,0.19580078,0.07122803,-0.44445801,0.00000000,-0.00000000,0.31000000,0.01400000,0.00300000,0.01800000,-0.99050802,-0.00755544,-0.00575519,0.13712656,-0.00323009,0.00656445,-0.00104334,-0.17328615,0.37800586,-0.11034886,-0.00884913,0.00334990,-0.03634576,0.03999563,0.01984022,-0.00714277,0.01855331,0.00772883,-0.00306154,0.02718232,0.09762136,13.90207577,0.52359879,0.00000000,0.00000000,1.50000000,0.01829500,0.00000000,1.00000000,89.12940979,30.00000000,1541405184.00000000,0.00000000,126088488780038144.00000000,123.00000000,0.54449952,0.52740979,5.17962360,0.52104563,0.52622235,0.50537908,0.61230254,0.55655229,0.32859862,0.00193805,-0.00393867,0.60041732,0.31645089,-0.68906319,11.37229347,0.99944592,0.03025117,0.01387740,0.00042004,0.00104730,-0.00156305,0.00710725,0.00043381,0.00028260,0.00257298,22217608.00000000,-0.00000000,-732586304.00000000,4283.56494141,-3211715521053458432.00000000,283622065221664768.00000000,0.00000000,0.00000000,73.00013733,-10134229811724288.00000000,17729922081629812686597420333662208.00000000,0.00000000
0.04307278,0.00239293,9.80862904,-0.00851380,0.00319268,-0.04363323,0.19519043,0.07049561,-0.44708252,0.00000000,-0.00000000,0.31000000,0.01400000,0.00300000,0.01800000,-0.99054855,-0.00791821,-0.00602202,0.13680163,-0.00345274,0.00705285,-0.00119301,-0.17246328,0.37830767,-0.11593261,-0.00884913,0.00334990,-0.03634576,0.03999563,0.01984022,-0.00714277,0.01855331,0.00772883,-0.00306154,0.02832061,0.10231774,13.90294552,0.52359879,0.00000000,0.00000000,1.50000000,0.01958600,0.00000000,1.00000000,89.14126587,30.00000000,1541405184.00000000,0.00000000,126088488780038144.00000000,123.00000000,0.51294798,0.49451613,5.47030830,0.48776114,0.49331164,0.47099525,0.58593768,0.52595454,0.28064218,0.00207164,-0.00423171,0.60047722,0.31528494,-0.69024718,11.38526440,0.99944633,0.03026861,0.01381052,0.00041826,0.00112205,-0.00167634,0.00766218,0.00045986,0.00029784,0.00275012,22217608.00000000,-0.00000000,-732586304.00000000,4283.56494141,-3211715521053458432.00000000,283622065221664768.00000000,0.00000000,0.00000000,73.00013733,-10134229811724288.00000000,17729922081629812686597420333662208.00000000,0.00000000
0.03828691,0.00957173,9.80862904,-0.00851380,0.00212845,-0.04150478,0.19519043,0.07049561,-0.44708252,0.00000000,-0.00000000,0.31000000,0.01400000,0.00300000,0.01800000,-0.99056923,-0.00810439,-0.00615894,0.13663498,-0.00357471,0.00732117,-0.00127724,-0.17203578,0.37845239,-0.11879787,-0.00884913,0.00334990,-0.03634576,0.03999563,0.01984022,-0.00714277,0.01855331,0.00772883,-0.00306154,0.02942703,0.10672583,13.90341949,0.52359879,0.00000000,0.00000000,1.50000000,0.02029500,0.00000000,1.00000000,89.14772034,30.00000000,1541405184.00000000,0.00000000,126088488780038144.00000000,123.00000000,0.48212516,0.46237612,5.75429440,0.45524418,0.46116313,0.43740189,0.56019360,0.49606949,0.23373047,0.00214483,-0.00439270,0.60051090,0.31468827,-0.69085985,11.39194775,0.99944651,0.03027769,0.01377630,0.00041735,0.00116320,-0.00173869,0.00796818,0.00047404,0.00030609,0.00284728,22217608.00000000,-0.00000000,-732586304.00000000,4283.56494141,-3211715521053458432.00000000,283622065221664768.00000000,0.00000000,0.00000000,73.00013733,-10134229811724288.00000000,17729922081629812686597420333662208.00000000,0.00000000
0.04785864,0.01196466,9.80862904,-0.00532113,0.00000000,-0.03937633,0.19519043,0.07049561,-0.44708252,0.00000000,-0.00000000,0.31000000,0.01400000,0.00300000,0.01800000,-0.99059618,-0.00834927,-0.00633901,0.13641594,-0.00374635,0.00770018,-0.00139993,-0.17146528,0.37862676,-0.12256593,-0.00884913,0.00334990,-0.03634576,0.03999563,0.01984022,-0.00714277,0.01855331,0.00772883,-0.00306154,0.03050049,0.11084906,13.90408039,0.52359879,0.00000000,0.00000000,1.50000000,0.02129600,0.00000000,1.00000000,89.15672302,30.00000000,1541405184.00000000,0.00000000,126088488780038144.00000000,123.00000000,0.45204058,0.43104154,6.03141737,0.42351824,0.42979243,0.40462133,0.53506780,0.46690726,0.18792498,0.00224781,-0.00462011,0.60055995,0.31390485,-0.69167125,11.40077972,0.99944681,0.03028976,0.01373135,0.00041615,0.00122130,-0.00182685,0.00840249,0.00049385,0.00031750,0.00298425,22217608.00000000,-0.00000000,-732586304.00000000,4283.56494141,-3211715521053458432.00000000,283622065221664768.00000000,0.00000000,0.00000000,73.00013733,-10134229811724288.00000000,17729922081629812686597420333662208.00000000,0.00000000
0.03350105,0.00717880,9.79666424,-0.00851380,0.00425690,-0.04363323,0.19689941,0.07092285,-0.44616699,0.00000000,-0.00000000,0.31000000,0.01400000,0.00300000,0.01800000,-0.99062842,-0.00864274,-0.00655475,0.13615370,-0.00396699,0.00818960,-0.00156412,-0.17076977,0.37881291,-0.12708078,-0.00884913,0.00334990,-0.03634576,0.03999563,0.01984022,-0.00714277,0.01855331,0.00772883,-0.00306154,0.03153736,0.11469374,13.90492535,0.52359879,0.00000000,0.00000000,1.50000000,0.02258800,0.00000000,1.00000000,89.16823578,30.00000000,1541405184.00000000,0.00000000,126088488780038144.00000000,123.00000000,0.42272136,0.40056086,6.30139875,0.39261818,0.39922595,0.37268931,0.51059079,0.43849576,0.14326522,0.00238019,-0.00491376,0.60062569,0.31296626,-0.69264889,11.41142082,0.99944705,0.03030426,0.01367753,0.00041472,0.00129633,-0.00194086,0.00896660,0.00051907,0.00033188,0.00316070,22217608.00000000,-0.00000000,-732586304.00000000,4283.56494141,-3211715521053458432.00000000,283622065221664768.00000000,0.00000000,0.00000000,73.00013733,-10134229811724288.00000000,17729922081629812686597420333662208.00000000,0.00000000
0.04067985,-0.00239293,9.78230667,-0.00851380,0.00319268,-0.04150478,0.19689941,0.07092285,-0.44616699,0.00000000,-0.00000000,0.31000000,0.01400000,0.00300000,0.01800000,-0.99064463,-0.00879154,-0.00666412,0.13602087,-0.00408764,0.00845786,-0.00165571,-0.17041093,0.37889525,-0.12936948,-0.00884913,0.00334990,-0.03634576,0.03999563,0.01984022,-0.00714277,0.01855331,0.00772883,-0.00306154,0.03253990,0.11823959,13.90538120,0.52359879,0.00000000,0.00000000,1.50000000,0.02329600,0.00000000,1.00000000,89.17444611,30.00000000,1541405184.00000000,0.00000000,126088488780038144.00000000,123.00000000,0.39424917,0.37099609,6.56337070,0.36263445,0.36956167,0.34169963,0.48685718,0.41092774,0.09986337,0.00245258,-0.00507472,0.60066229,0.31249183,-0.69314933,11.41684723,0.99944723,0.03031174,0.01365031,0.00041399,0.00133752,-0.00200345,0.00927672,0.00053279,0.00033966,0.00325730,22217608.00000000,-0.00000000,-732586304.00000000,4283.56494141,-3211715521053458432.00000000,283622065221664768.00000000,0.00000000,0.00000000,73.00013733,-10134229811724288.00000000,17729922081629812686597420333662208.00000000,0.00000000
0.04785864,0.00000000,9.78709221,-0.00851380,0.00212845,-0.03511943,0.19689941,0.07092285,-0.44616699,0.00000000,-0.00000000,0.31000000,0.01400000,0.00300000,0.01800000,-0.99066556,-0.00898494,-0.00680621,0.13584843,-0.00425723,0.00883609,-0.00178779,-0.16993499,0.37898371,-0.13234347,-0.00884913,0.00334990,-0.03634576,0.03999563,0.01984022,-0.00714277,0.01855331,0.00772883,-0.00306154,0.03350877,0.12149648,13.90601730,0.52359879,0.00000000,0.00000000,1.50000000,0.02429400,0.00000000,1.00000000,89.18311310,30.00000000,1541405184.00000000,0.00000000,126088488780038144.00000000,123.00000000,0.36676183,0.34243277,6.81619883,0.33368933,0.34092411,0.31179097,0.46397600,0.38432312,0.05789059,0.00255434,-0.00530165,0.60071510,0.31187636,-0.69380540,11.42394447,0.99944741,0.03032156,0.01361496,0.00041306,0.00139559,-0.00209177,0.00971568,0.00055196,0.00035044,0.00339329,22217608.00000000,-0.00000000,-732586304.00000000,4283.56494141,-3211715521053458432.00000000,283622065221664768.00000000,0.00000000,0.00000000,73.00013733,-10134229811724288.00000000,17729922081629812686597420333662208.00000000,0.00000000
0.05025157,0.01196466,9.80862904,-0.00851380,0.00212845,-0.04789013,0.19946289,0.07287598,-0.44396973,0.00000000,-0.00000000,0.31000000,0.01400000,0.00300000,0.01800000,-0.99069029,-0.00921496,-0.00697516,0.13564360,-0.00447604,0.00932584,-0.00196334,-0.16935535,0.37906268,-0.13587992,-0.00884913,0.00334990,-0.03634576,0.03999563,0.01984022,-0.00714277,0.01855331,0.00772883,-0.00306154,0.03444488,0.12447653,13.90682983,0.52359879,0.00000000,0.00000000,1.50000000,0.02558600,0.00000000,1.00000000,89.19418335,30.00000000,1541405184.00000000,0.00000000,126088488780038144.00000000,123.00000000,0.34037036,0.31496376,7.05913353,0.30587113,0.31339923,0.28305414,0.44201344,0.35876456,0.01749467,0.00268562,-0.00559550,0.60078537,0.31114453,-0.69459099,11.43245125,0.99944758,0.03033330,0.01357290,0.00041194,0.00147079,-0.00220629,0.01028674,0.00057650,0.00036413,0.00356909,22217608.00000000,-0.00000000,-732586304.00000000,4283.56494141,-3211715521053458432.00000000,283622065221664768.00000000,0.00000000,0.00000000,73.00013733,-10134229811724288.00000000,17729922081629812686597420333662208.00000000,0.00000000
0.04546571,0.01196466,9.81580734,-0.00638535,0.00319268,-0.03831211,0.19946289,0.07287598,-0.44396973,0.00000000,-0.00000000,0.31000000,0.01400000,0.00300000,0.01800000,-0.99070269,-0.00933032,-0.00705986,0.13554104,-0.00459573,0.00959423,-0.00206080,-0.16905740,0.37908825,-0.13765305,-0.00884913,0.00334990,-0.03634576,0.03999563,0.01984022,-0.00714277,0.01855331,0.00772883,-0.00306154,0.03535162,0.12716655,13.90726948,0.52359879,0.00000000,0.00000000,1.50000000,0.02629400,0.00000000,1.00000000,89.20017242,30.00000000,1541405184.00000000,0.00000000,126088488780038144.00000000,123.00000000,0.31509322,0.28864208,7.29202938,0.27920327,0.28701302,0.25549880,0.42098022,0.33427295,-0.02125864,0.00275744,-0.00575654,0.60082430,0.31077877,-0.69498974,11.43675137,0.99944770,0.03033929,0.01355185,0.00041138,0.00151206,-0.00226913,0.01060045,0.00058988,0.00037156,0.00366535,22217608.00000000,-0.00000000,-732586304.00000000,4283.56494141,-3211715521053458432.00000000,283622065221664768.00000000,0.00000000,0.00000000,73.00013733,-10134229811724288.00000000,17729922081629812686597420333662208.00000000,0.00000000
0.04546571,0.00239293,9.79666424,-0.00638535,0.00319268,-0.04044056,0.19946289,0.07287598,-0.44396973,0.00000000,-0.00000000,0.31000000,0.01400000,0.00300000,0.01800000,-0.99071860,-0.00947911,-0.00716905,0.13540900,-0.00476473,0.00997409,-0.00220102,-0.16866198,0.37909976,-0.13993920,-0.00884913,0.00334990,-0.03634576,0.03999563,0.01984022,-0.00714277,0.01855331,0.00772883,-0.00306154,0.03622704,0.12957771,13.90788269,0.52359879,0.00000000,0.00000000,1.50000000,0.02729600,0.00000000,1.00000000,89.20852661,30.00000000,1541405184.00000000,0.00000000,126088488780038144.00000000,123.00000000,0.29090729,0.26345766,7.51500034,0.25367695,0.26175585,0.22912055,0.40086174,0.31083539,-0.05837130,0.00285884,-0.00598445,0.60088044,0.31030792,-0.69550967,11.44234943,0.99944782,0.03034712,0.01352469,0.00041066,0.00157047,-0.00235815,0.01104583,0.00060867,0.00038192,0.00380145,22217608.00000000,-0.00000000,-732586304.00000000,4283.56494141,-3211715521053458432.00000000,283622065221664768.00000000,0.00000000,0.00000000,73.00013733,-10134229811724288.00000000,17729922081629812686597420333662208.00000000,0.00000000
0.05025157,-0.00239293,9.80144978,-0.00851380,0.00106423,-0.04363323,0.19805908,0.07299805,-0.44128418,0.00000000,-0.00000000,0.31000000,0.01400000,0.00300000,0.01800000,-0.99073696,-0.00965300,-0.00729658,0.13525499,-0.00498186,0.01046349,-0.00238513,-0.16818434,0.37908328,-0.14260992,-0.00884913,0.00334990,-0.03634576,0.03999563,0.01984022,-0.00714277,0.01855331,0.00772883,-0.00306154,0.03706942,0.13172339,13.90866184,0.52359879,0.00000000,0.00000000,1.50000000,0.02858700,0.00000000,1.00000000,89.21913910,30.00000000,1541405184.00000000,0.00000000,126088488780038144.00000000,123.00000000,0.26782164,0.23939034,7.72802305,0.22929275,0.23762420,0.20392278,0.38165972,0.28845307,-0.09384485,0.00298911,-0.00627809,0.60095406,0.30975795,-0.69612342,11.44896317,0.99944800,0.03035634,0.01349292,0.00040982,0.00164574,-0.00247297,0.01162179,0.00063268,0.00039507,0.00397661,22217608.00000000,-0.00000000,-732586304.00000000,4283.56494141,-3211715521053458432.00000000,283622065221664768.00000000,0.00000000,0.00000000,73.00013733,-10134229811724288.00000000,17729922081629812686597420333662208.00000000,0.00000000
0.04546571,0.00000000,9.79427147,-0.00957803,0.00212845,-0.03724788,0.19805908,0.07299805,-0.44128418,0.00000000,-0.00000000,0.31000000,0.01400000,0.00300000,0.01800000,-0.99074602,-0.00973917,-0.00735975,0.13517886,-0.00510093,0.01073224,-0.00248718,-0.16793911,0.37905866,-0.14393292,-0.00884913,0.00334990,-0.03634576,0.03999563,0.01984022,-0.00714277,0.01855331,0.00772883,-0.00306154,0.03788221,0.13359925,13.90908337,0.52359879,0.00000000,0.00000000,1.50000000,0.02929600,0.00000000,1.00000000,89.22488403,30.00000000,1541405184.00000000,0.00000000,126088488780038144.00000000,123.00000000,0.24587417,0.21646106,7.93084764,0.20607620,0.21464224,0.17993225,0.36340138,0.26715642,-0.12764151,0.00306056,-0.00643934,0.60099488,0.30948648,-0.69643253,11.45228004,0.99944806,0.03036102,0.01347719,0.00040941,0.00168712,-0.00253610,0.01193868,0.00064581,0.00040224,0.00407275,22217608.00000000,-0.00000000,-732586304.00000000,4283.56494141,-3211715521053458432.00000000,283622065221664768.00000000,0.00000000,0.00000000,73.00013733,-10134229811724288.00000000,17729922081629812686597420333662208.00000000,0.00000000
0.04067985,-0.00239293,9.80144978,-0.00851380,0.00212845,-0.03724788,0.19805908,0.07299805,-0.44128418,0.00000000,-0.00000000,0.31000000,0.01400000,0.00300000,0.01800000,-0.99075747,-0.00984825,-0.00743964,0.13508278,-0.00526854,0.01111124,-0.00263279,-0.16761576,0.37900260,-0.14560674,-0.00884913,0.00334990,-0.03634576,0.03999563,0.01984022,-0.00714277,0.01855331,0.00772883,-0.00306154,0.03866668,0.13522342,13.90966797,0.52359879,0.00000000,0.00000000,1.50000000,0.03029600,0.00000000,1.00000000,89.23284912,30.00000000,1541405184.00000000,0.00000000,126088488780038144.00000000,123.00000000,0.22507976,0.19470027,8.12317276,0.18406104,0.19284619,0.15719652,0.34611365,0.24697831,-0.15971033,0.00316112,-0.00666675,0.60105312,0.30914387,-0.69682997,11.45653915,0.99944818,0.03036705,0.01345727,0.00040888,0.00174549,-0.00262519,0.01238668,0.00066424,0.00041224,0.00420826,22217608.00000000,-0.00000000,-732586304.00000000,4283.56494141,-3211715521053458432.00000000,283622065221664768.00000000,0.00000000,0.00000000,73.00013733,-10134229811724288.00000000,17729922081629812686597420333662208.00000000,0.00000000
0.05264451,0.01675053,9.80623627,-0.00744958,0.00532113,-0.04363323,0.19787598,0.07037354,-0.44268799,0.00000000,-0.00000000,0.31000000,0.01400000,0.00300000,0.01800000,-0.99077058,-0.00997388,-0.00753155,0.13497250,-0.00548443,0.01160041,-0.00282325,-0.16722542,0.37890351,-0.14753321,-0.00884913,0.00334990,-0.03634576,0.03999563,0.01984022,-0.00714277,0.01855331,0.00772883,-0.00306154,0.03942314,0.13661082,13.91041374,0.52359879,0.00000000,0.00000000,1.50000000,0.03158700,0.00000000,1.00000000,89.24301147,30.00000000,1541405184.00000000,0.00000000,126088488780038144.00000000,123.00000000,0.20543762,0.17412432,8.30491066,0.16325814,0.17225187,0.13572264,0.32979617,0.22792104,-0.19002986,0.00329066,-0.00696024,0.60112929,0.30874979,-0.69729507,11.46152401,0.99944824,0.03037409,0.01343427,0.00040828,0.00182086,-0.00274030,0.01296659,0.00068787,0.00042500,0.00438305,22217608.00000000,-0.00000000,-732586304.00000000,4283.56494141,-3211715521053458432.00000000,283622065221664768.00000000,0.00000000,0.00000000,73.00013733,-10134229811724288.00000000,17729922081629812686597420333662208.00000000,0.00000000
0.03589398,0.00957173,9.79187870,-0.00532113,0.00212845,-0.03618366,0.19787598,0.07037354,-0.44268799,0.00000000,-0.00000000,0.31000000,0.01400000,0.00300000,0.01800000,-0.99077690,-0.01003500,-0.00757623,0.13491905,-0.00560285,0.01186900,-0.00292852,-0.16702546,0.37883592,-0.14846979,-0.00884913,0.00334990,-0.03634576,0.03999563,0.01984022,-0.00714277,0.01855331,0.00772883,-0.00306154,0.04015287,0.13775608,13.91081810,0.52359879,0.00000000,0.00000000,1.50000000,0.03229600,0.00000000,1.00000000,89.24851990,30.00000000,1541405184.00000000,0.00000000,126088488780038144.00000000,123.00000000,0.18692501,0.15473443,8.47623444,0.14364773,0.15284039,0.11548181,0.31442198,0.20995446,-0.21862313,0.00336171,-0.00712140,0.60117143,0.30855921,-0.69752675,11.46399689,0.99944830,0.03037763,0.01342308,0.00040799,0.00186228,-0.00280357,0.01328549,0.00070082,0.00043197,0.00447901,22217608.00000000,-0.00000000,-732586304.00000000,4283.56494141,-3211715521053458432.00000000,283622065221664768.00000000,0.00000000,0.00000000,73.00013733,-10134229811724288.00000000,17729922081629812686597420333662208.00000000,0.00000000
0.04307278,0.00478586,9.81580734,-0.00744958,0.00319268,-0.03937633,0.19787598,0.07037354,-0.44268799,0.00000000,-0.00000000,0.31000000,0.01400000,0.00300000,0.01800000,-0.99078465,-0.01011068,-0.00763147,0.13485318,-0.00576945,0.01224735,-0.00307800,-0.16676261,0.37872285,-0.14962855,-0.00884913,0.00334990,-0.03634576,0.03999563,0.01984022,-0.00714277,0.01855331,0.00772883,-0.00306154,0.04085424,0.13867478,13.91137600,0.52359879,0.00000000,0.00000000,1.50000000,0.03329500,0.00000000,1.00000000,89.25611877,30.00000000,1541405184.00000000,0.00000000,126088488780038144.00000000,123.00000000,0.16949214,0.13649867,8.63743782,0.12519735,0.13457507,0.09644827,0.29996151,0.19304375,-0.24553663,0.00346167,-0.00734841,0.60123122,0.30832434,-0.69782096,11.46712685,0.99944836,0.03038213,0.01340920,0.00040762,0.00192064,-0.00289276,0.01373556,0.00071898,0.00044172,0.00461416,22217608.00000000,-0.00000000,-732586304.00000000,4283.56494141,-3211715521053458432.00000000,283622065221664768.00000000,0.00000000,0.00000000,73.00013733,-10134229811724288.00000000,17729922081629812686597420333662208.00000000,0.00000000
0.03589398,-0.00478586,9.80623627,-0.00957803,0.00425690,-0.04576168,0.19549561,0.07135010,-0.44476318,0.00000000,-0.00000000,0.31000000,0.01400000,0.00300000,0.01800000,-0.99079335,-0.01019583,-0.00769352,0.13477951,-0.00598433,0.01273606,-0.00327285,-0.16644564,0.37855470,-0.15093076,-0.00884913,0.00334990,-0.03634576,0.03999563,0.01984022,-0.00714277,0.01855331,0.00772883,-0.00306154,0.04152763,0.13938183,13.91209030,0.52359879,0.00000000,0.00000000,1.50000000,0.03458600,0.00000000,1.00000000,89.26584625,30.00000000,1541405184.00000000,0.00000000,126088488780038144.00000000,123.00000000,0.15311195,0.11938038,8.78877544,0.10788010,0.11743368,0.07858892,0.28639650,0.17716908,-0.27081287,0.00359060,-0.00764164,0.60130918,0.30806130,-0.69816148,11.47074699,0.99944836,0.03038736,0.01339353,0.00040722,0.00199606,-0.00300808,0.01431824,0.00074236,0.00045422,0.00478871,22217608.00000000,-0.00000000,-732586304.00000000,4283.56494141,-3211715521053458432.00000000,283622065221664768.00000000,0.00000000,0.00000000,73.00013733,-10134229811724288.00000000,17729922081629812686597420333662208.00000000,0.00000000
0.05264451,0.00478586,9.79427147,-0.00638535,0.00212845,-0.03724788,0.19549561,0.07135010,-0.44476318,0.00000000,-0.00000000,0.31000000,0.01400000,0.00300000,0.01800000,-0.99079740,-0.01023615,-0.00772284,0.13474488,-0.00610239,0.01300476,-0.00338045,-0.16628329,0.37845141,-0.15154646,-0.00884913,0.00334990,-0.03634576,0.03999563,0.01984022,-0.00714277,0.01855331,0.00772883,-0.00306154,0.04217516,0.13987546,13.91247654,0.52359879,0.00000000,0.00000000,1.50000000,0.03529600,0.00000000,1.00000000,89.27111053,30.00000000,1541405184.00000000,0.00000000,126088488780038144.00000000,123.00000000,0.13778904,0.10336871,8.93034744,0.09168591,0.10140683,0.06188159,0.27371651,0.16232264,-0.29447958,0.00366143,-0.00780286,0.60135216,0.30793807,-0.69832915,11.47251606,0.99944842,0.03038996,0.01338610,0.00040703,0.00203756,-0.00307153,0.01463898,0.00075519,0.00046107,0.00488468,22217608.00000000,-0.00000000,-732586304.00000000,4283.56494141,-3211715521053458432.00000000,283622065221664768.00000000,0.00000000,0.00000000,73.00013733,-10134229811724288.00000000,17729922081629812686597420333662208.00000000,0.00000000
0.05025157,0.01435759,9.80384254,-0.00744958,0.00212845,-0.04256901,0.19549561,0.07135010,-0.44476318,0.00000000,-0.00000000,0.31000000,0.01400000,0.00300000,0.01800000,-0.99080223,-0.01028441,-0.00775785,0.13470383,-0.00626846,0.01338305,-0.00353273,-0.16607018,0.37829146,-0.15228185,-0.00884913,0.00334990,-0.03634576,0.03999563,0.01984022,-0.00714277,0.01855331,0.00772883,-0.00306154,0.04279397,0.14017297,13.91301155,0.52359879,0.00000000,0.00000000,1.50000000,0.03629600,0.00000000,1.00000000,89.27839661,30.00000000,1541405184.00000000,0.00000000,126088488780038144.00000000,123.00000000,0.12353346,0.08846737,9.06223869,0.07660675,0.08647645,0.04631894,0.26190847,0.14849320,-0.31655711,0.00376107,-0.00802983,0.60141313,0.30779228,-0.69853926,11.47472095,0.99944842,0.03039326,0.01337719,0.00040680,0.00209601,-0.00316093,0.01509119,0.00077322,0.00047067,0.00501981,22217608.00000000,-0.00000000,-732586304.00000000,4283.56494141,-3211715521053458432.00000000,283622065221664768.00000000,0.00000000,0.00000000,73.00013733,-10134229811724288.00000000,17729922081629812686597420333662208.00000000,0.00000000
0.04307278,0.00717880,9.81102180,-0.00851380,0.00212845,-0.04363323,0.19653320,0.07135010,-0.44659424,0.00000000,-0.00000000,0.31000000,0.01400000,0.00300000,0.01800000,-0.99080724,-0.01033647,-0.00779548,0.13466009,-0.00648252,0.01387114,-0.00373034,-0.16581354,0.37806743,-0.15307324,-0.00884913,0.00334990,-0.03634576,0.03999563,0.01984022,-0.00714277,0.01855331,0.00772883,-0.00306154,0.04338323,0.14029238,13.91369438,0.52359879,0.00000000,0.00000000,1.50000000,0.03758700,0.00000000,1.00000000,89.28770447,30.00000000,1541405184.00000000,0.00000000,126088488780038144.00000000,123.00000000,0.11031512,0.07464794,9.18470764,0.06260987,0.07261185,0.03186557,0.25094706,0.13565513,-0.33708146,0.00388951,-0.00832268,0.60149211,0.30763698,-0.69877863,11.47721958,0.99944842,0.03039705,0.01336753,0.00040656,0.00217147,-0.00327638,0.01567568,0.00079644,0.00048300,0.00519421,22217608.00000000,-0.00000000,-732586304.00000000,4283.56494141,-3211715521053458432.00000000,283622065221664768.00000000,0.00000000,0.00000000,73.00013733,-10134229811724288.00000000,17729922081629812686597420333662208.00000000,0.00000000
0.02153639,-0.00717880,9.80862904,-0.00425690,0.00000000,-0.03831211,0.19653320,0.07135010,-0.44659424,0.00000000,-0.00000000,0.31000000,0.01400000,0.00300000,0.01800000,-0.99080956,-0.01036010,-0.00781247,0.13464062,-0.00660115,0.01414174,-0.00384020,-0.16568090,0.37793452,-0.15343098,-0.00884913,0.00334990,-0.03634576,0.03999563,0.01984022,-0.00714277,0.01855331,0.00772883,-0.00306154,0.04394517,0.14023888,13.91406727,0.52359879,0.00000000,0.00000000,1.50000000,0.03830300,0.00000000,1.00000000,89.29278564,30.00000000,1541405184.00000000,0.00000000,126088488780038144.00000000,123.00000000,0.09805190,0.06183192,9.29812527,0.04965120,0.05976927,0.01847693,0.24079739,0.12377089,-0.35611084,0.00396069,-0.00848504,0.60153610,0.30756816,-0.69889563,11.47842789,0.99944842,0.03039894,0.01336313,0.00040645,0.00221334,-0.00334043,0.01600001,0.00080930,0.00048982,0.00529092,22217608.00000000,-0.00000000,-732586304.00000000,4283.56494141,-3211715521053458432.00000000,283622065221664768.00000000,0.00000000,0.00000000,73.00013733,-10134229811724288.00000000,17729922081629812686597420333662208.00000000,0.00000000
0.04307278,0.00000000,9.81102180,-0.00851380,0.00212845,-0.04363323,0.19653320,0.07135010,-0.44659424,0.00000000,-0.00000000,0.31000000,0.01400000,0.00300000,0.01800000,-0.99081200,-0.01038616,-0.00783107,0.13461967,-0.00676567,0.01451721,-0.00399310,-0.16550919,0.37773877,-0.15382358,-0.00884913,0.00334990,-0.03634576,0.03999563,0.01984022,-0.00714277,0.01855331,0.00772883,-0.00306154,0.04447861,0.14003222,13.91457653,0.52359879,0.00000000,0.00000000,1.50000000,0.03929700,0.00000000,1.00000000,89.29972076,30.00000000,1541405184.00000000,0.00000000,126088488780038144.00000000,123.00000000,0.08668683,0.04996161,9.40286636,0.03769124,0.04790347,0.00611567,0.23142622,0.11280081,-0.37370801,0.00405940,-0.00871033,0.60159725,0.30749491,-0.69903773,11.47987652,0.99944842,0.03040127,0.01335826,0.00040633,0.00227145,-0.00342937,0.01645055,0.00082713,0.00049927,0.00542515,22217608.00000000,-0.00000000,-732586304.00000000,4283.56494141,-3211715521053458432.00000000,283622065221664768.00000000,0.00000000,0.00000000,73.00013733,-10134229811724288.00000000,17729922081629812686597420333662208.00000000,0.00000000
0.04067985,-0.00478586,9.80623627,-0.01064225,0.00212845,-0.03831211,0.19824219,0.07275391,-0.44519043,0.00000000,-0.00000000,0.31000000,0.01400000,0.00300000,0.01800000,-0.99081427,-0.01041197,-0.00784928,0.13459975,-0.00697907,0.01500452,-0.00419219,-0.16530102,0.37747103,-0.15420914,-0.00884913,0.00334990,-0.03634576,0.03999563,0.01984022,-0.00714277,0.01855331,0.00772883,-0.00306154,0.04498527,0.13969009,13.91523170,0.52359879,0.00000000,0.00000000,1.50000000,0.04058800,0.00000000,1.00000000,89.30864716,30.00000000,1541405184.00000000,0.00000000,126088488780038144.00000000,123.00000000,0.07621530,0.03902163,9.49925709,0.02668792,0.03698142,-0.00525613,0.22281066,0.10271251,-0.38992587,0.00418744,-0.00900272,0.60167688,0.30742615,-0.69919759,11.48148537,0.99944842,0.03040396,0.01335340,0.00040622,0.00234692,-0.00354489,0.01703606,0.00085027,0.00051151,0.00559948,22217608.00000000,-0.00000000,-732586304.00000000,4283.56494141,-3211715521053458432.00000000,283622065221664768.00000000,0.00000000,0.00000000,73.00013733,-10134229811724288.00000000,17729922081629812686597420333662208.00000000,0.00000000
0.05025157,0.00957173,9.79666424,-0.00744958,0.00106423,-0.03724788,0.19824219,0.07275391,-0.44519043,0.00000000,-0.00000000,0.31000000,0.01400000,0.00300000,0.01800000,-0.99081510,-0.01042207,-0.00785627,0.13459249,-0.00709586,0.01527129,-0.00430132,-0.16519459,0.37731782,-0.15435788,-0.00884913,0.00334990,-0.03634576,0.03999563,0.01984022,-0.00714277,0.01855331,0.00772883,-0.00306154,0.04546963,0.13921769,13.91558361,0.52359879,0.00000000,0.00000000,1.50000000,0.04129500,0.00000000,1.00000000,89.31343842,30.00000000,1541405184.00000000,0.00000000,126088488780038144.00000000,123.00000000,0.06662009,0.02899469,9.58756447,0.01660723,0.02697305,-0.01566349,0.21493299,0.09347951,-0.40480810,0.00425752,-0.00916277,0.60172051,0.30740204,-0.69927323,11.48222923,0.99944842,0.03040528,0.01335148,0.00040618,0.00238826,-0.00360817,0.01735679,0.00086293,0.00051821,0.00569494,22217608.00000000,-0.00000000,-732586304.00000000,4283.56494141,-3211715521053458432.00000000,283622065221664768.00000000,0.00000000,0.00000000,73.00013733,-10134229811724288.00000000,17729922081629812686597420333662208.00000000,0.00000000
0.04785864,0.01196466,9.81580734,-0.00957803,0.00106423,-0.04044056,0.19824219,0.07275391,-0.44519043,0.00000000,-0.00000000,0.31000000,0.01400000,0.00300000,0.01800000,-0.99081570,-0.01043115,-0.00786230,0.13458693,-0.00726092,0.01564838,-0.00445580,-0.16505378,0.37709260,-0.15448779,-0.00884913,0.00334990,-0.03634576,0.03999563,0.01984022,-0.00714277,0.01855331,0.00772883,-0.00306154,0.04593258,0.13863279,13.91607761,0.52359879,0.00000000,0.00000000,1.50000000,0.04229500,0.00000000,1.00000000,89.32016754,30.00000000,1541405184.00000000,0.00000000,126088488780038144.00000000,123.00000000,0.05786992,0.01985703,9.66808510,0.00741800,0.01784260,-0.02513809,0.20776725,0.08507134,-0.41840023,0.00435655,-0.00938903,0.60178232,0.30738533,-0.69936460,11.48310471,0.99944836,0.03040693,0.01334974,0.00040615,0.00244673,-0.00369767,0.01781055,0.00088083,0.00052767,0.00582995,22217608.00000000,-0.00000000,-732586304.00000000,4283.56494141,-3211715521053458432.00000000,283622065221664768.00000000,0.00000000,0.00000000,73.00013733,-10134229811724288.00000000,17729922081629812686597420333662208.00000000,0.00000000
0.04546571,-0.00239293,9.81580734,-0.00851380,0.00000000,-0.03511943,0.19854736,0.07324219,-0.44268799,0.00000000,-0.00000000,0.31000000,0.01400000,0.00300000,0.01800000,-0.99081588,-0.01043677,-0.00786556,0.13458526,-0.00747378,0.01613482,-0.00465534,-0.16488346,0.37679195,-0.15456115,-0.00884913,0.00334990,-0.03634576,0.03999563,0.01984022,-0.00714277,0.01855331,0.00772883,-0.00306154,0.04637695,0.13795252,13.91670418,0.52359879,0.00000000,0.00000000,1.50000000,0.04358600,0.00000000,1.00000000,89.32870483,30.00000000,1541405184.00000000,0.00000000,126088488780038144.00000000,123.00000000,0.04993689,0.01155715,9.74119759,-0.00092553,0.00954869,-0.03372303,0.20127809,0.07745092,-0.43075350,0.00448427,-0.00968089,0.60186213,0.30738410,-0.69946432,11.48402786,0.99944836,0.03040881,0.01334861,0.00040614,0.00252220,-0.00381322,0.01839647,0.00090394,0.00053989,0.00600425,22217608.00000000,-0.00000000,-732586304.00000000,4283.56494141,-3211715521053458432.00000000,283622065221664768.00000000,0.00000000,0.00000000,73.00013733,-10134229811724288.00000000,17729922081629812686597420333662208.00000000,0.00000000
0.04067985,0.00957173,9.80144978,-0.00744958,0.00000000,-0.04150478,0.19854736,0.07324219,-0.44268799,0.00000000,-0.00000000,0.31000000,0.01400000,0.00300000,0.01800000,-0.99081564,-0.01043682,-0.00786510,0.13458706,-0.00759062,0.01640185,-0.00476492,-0.16479564,0.37662199,-0.15455461,-0.00884913,0.00334990,-0.03634576,0.03999563,0.01984022,-0.00714277,0.01855331,0.00772883,-0.00306154,0.04680775,0.13718398,13.91704750,0.52359879,0.00000000,0.00000000,1.50000000,0.04429500,0.00000000,1.00000000,89.33338165,30.00000000,1541405184.00000000,0.00000000,126088488780038144.00000000,123.00000000,0.04278541,0.00404425,9.80728340,-0.00847020,0.00204512,-0.04146298,0.19542816,0.07057800,-0.44192418,0.00455437,-0.00984111,0.60190600,0.30739367,-0.69951028,11.48443222,0.99944830,0.03040974,0.01334855,0.00040615,0.00256365,-0.00387668,0.01871827,0.00091663,0.00054660,0.00609998,22217608.00000000,-0.00000000,-732586304.00000000,4283.56494141,-3211715521053458432.00000000,283622065221664768.00000000,0.00000000,0.00000000,73.00013733,-10134229811724288.00000000,17729922081629812686597420333662208.00000000,0.00000000
0.03350105,0.01196466,9.79666424,-0.00744958,0.00319268,-0.04044056,0.19854736,0.07324219,-0.44268799,0.00000000,-0.00000000,0.31000000,0.01400000,0.00300000,0.01800000,-0.99081486,-0.01043306,-0.00786160,0.13459305,-0.00775530,0.01677822,-0.00491941,-0.16467905,0.37637621,-0.15448600,-0.00884913,0.00334990,-0.03634576,0.03999563,0.01984022,-0.00714277,0.01855331,0.00772883,-0.00306154,0.04722614,0.13634235,13.91752052,0.52359879,0.00000000,0.00000000,1.50000000,0.04529500,0.00000000,1.00000000,89.33982849,30.00000000,1541405184.00000000,0.00000000,126088488780038144.00000000,123.00000000,0.03636327,-0.00268497,9.86668396,-0.01525448,-0.00470889,-0.04841146,0.19018285,0.06441201,-0.45197362,0.00465318,-0.01006693,0.60196775,0.30742010,-0.69956386,11.48487091,0.99944824,0.03041090,0.01334919,0.00040618,0.00262210,-0.00396618,0.01917214,0.00093453,0.00055606,0.00623500,22217608.00000000,-0.00000000,-732586304.00000000,4283.56494141,-3211715521053458432.00000000,283622065221664768.00000000,0.00000000,0.00000000,73.00013733,-10134229811724288.00000000,17729922081629812686597420333662208.00000000,0.00000000
0.03589398,0.00957173,9.81341457,-0.00744958,0.00212845,-0.03511943,0.19903564,0.07318115,-0.44134521,0.00000000,-0.00000000,0.31000000,0.01400000,0.00300000,0.01800000,-0.99081343,-0.01042376,-0.00785379,0.13460478,-0.00796788,0.01726408,-0.00511880,-0.16453695,0.37605193,-0.15432881,-0.00884913,0.00334990,-0.03634576,0.03999563,0.01984022,-0.00714277,0.01855331,0.00772883,-0.00306154,0.04763127,0.13543957,13.91812706,0.52359879,0.00000000,0.00000000,1.50000000,0.04658700,0.00000000,1.00000000,89.34809113,30.00000000,1541405184.00000000,0.00000000,126088488780038144.00000000,123.00000000,0.03060497,-0.00864952,9.91975975,-0.02131338,-0.01074732,-0.05460849,0.18551211,0.05891497,-0.46095961,0.00478073,-0.01035845,0.60204756,0.30746943,-0.69962054,11.48528671,0.99944824,0.03041226,0.01335084,0.00040625,0.00269762,-0.00408182,0.01975849,0.00095768,0.00056831,0.00640946,22217608.00000000,-0.00000000,-732586304.00000000,4283.56494141,-3211715521053458432.00000000,283622065221664768.00000000,0.00000000,0.00000000,73.00013733,-10134229811724288.00000000,17729922081629812686597420333662208.00000000,0.00000000
0.05264451,0.01435759,9.80623627,-0.00851380,0.00212845,-0.04150478,0.19903564,0.07318115,-0.44134521,0.00000000,-0.00000000,0.31000000,0.01400000,0.00300000,0.01800000,-0.99081242,-0.01041649,-0.00784788,0.13461316,-0.00808465,0.01753095,-0.00522829,-0.16446301,0.37587047,-0.15420899,-0.00884913,0.00334990,-0.03634576,0.03999563,0.01984022,-0.00714277,0.01855331,0.00772883,-0.00306154,0.04802292,0.13447861,13.91845703,0.52359879,0.00000000,0.00000000,1.50000000,0.04729700,0.00000000,1.00000000,89.35258484,30.00000000,1541405184.00000000,0.00000000,126088488780038144.00000000,123.00000000,0.02547505,-0.01390158,9.96687126,-0.02668321,-0.01610660,-0.06008950,0.18138747,0.05405121,-0.46893376,0.00485079,-0.01051857,0.60209131,0.30750394,-0.69964564,11.48544216,0.99944818,0.03041293,0.01335216,0.00040630,0.00273911,-0.00414536,0.02008067,0.00097040,0.00057504,0.00650534,22217608.00000000,-0.00000000,-732586304.00000000,4283.56494141,-3211715521053458432.00000000,283622065221664768.00000000,0.00000000,0.00000000,73.00013733,-10134229811724288.00000000,17729922081629812686597420333662208.00000000,0.00000000
0.05982330,0.01914346,9.81102180,-0.01064225,0.00319268,-0.04469746,0.19903564,0.07318115,-0.44134521,0.00000000,-0.00000000,0.31000000,0.01400000,0.00300000,0.01800000,-0.99081069,-0.01040358,-0.00783757,0.13462734,-0.00824901,0.01790656,-0.00538229,-0.16436407,0.37561101,-0.15399876,-0.00884913,0.00334990,-0.03634576,0.03999563,0.01984022,-0.00714277,0.01855331,0.00772883,-0.00306154,0.04840189,0.13346975,13.91891575,0.52359879,0.00000000,0.00000000,1.50000000,0.04829700,0.00000000,1.00000000,89.35883331,30.00000000,1541405184.00000000,0.00000000,126088488780038144.00000000,123.00000000,0.02097460,-0.01848001,10.00834370,-0.03140798,-0.02082275,-0.06491091,0.17777745,0.04978451,-0.47595018,0.00494941,-0.01074394,0.60215294,0.30756178,-0.69967377,11.48556805,0.99944812,0.03041383,0.01335452,0.00040639,0.00279755,-0.00423484,0.02053436,0.00098834,0.00058454,0.00664040,22217608.00000000,-0.00000000,-732586304.00000000,4283.56494141,-3211715521053458432.00000000,283622065221664768.00000000,0.00000000,0.00000000,73.00013733,-10134229811724288.00000000,17729922081629812686597420333662208.00000000,0.00000000
0.05503744,-0.00478586,9.80144978,-0.00851380,0.00106423,-0.03831211,0.19616699,0.07006836,-0.44342041,0.00000000,-0.00000000,0.31000000,0.01400000,0.00300000,0.01800000,-0.99080819,-0.01038389,-0.00782202,0.13464835,-0.00846105,0.01839104,-0.00558069,-0.16424228,0.37527195,-0.15368067,-0.00884913,0.00334990,-0.03634576,0.03999563,0.01984022,-0.00714277,0.01855331,0.00772883,-0.00306154,0.04877139,0.13242124,13.91950321,0.52359879,0.00000000,0.00000000,1.50000000,0.04958800,0.00000000,1.00000000,89.36683655,30.00000000,1541405184.00000000,0.00000000,126088488780038144.00000000,123.00000000,0.01709529,-0.02244065,10.04451084,-0.03553396,-0.02493371,-0.06911951,0.17464440,0.04607321,-0.48207024,0.00507663,-0.01103462,0.60223228,0.30764702,-0.69970214,11.48562908,0.99944800,0.03041489,0.01335815,0.00040651,0.00287299,-0.00435035,0.02111989,0.00101152,0.00059683,0.00681478,22217608.00000000,-0.00000000,-732586304.00000000,4283.56494141,-3211715521053458432.00000000,283622065221664768.00000000,0.00000000,0.00000000,73.00013733,-10134229811724288.00000000,17729922081629812686597420333662208.00000000,0.00000000
0.04307278,0.00000000,9.80623627,-0.00957803,0.00106423,-0.04363323,0.19616699,0.07006836,-0.44342041,0.00000000,-0.00000000,0.31000000,0.01400000,0.00300000,0.01800000,-0.99080664,-0.01037166,-0.00781243,0.13466115,-0.00857729,0.01865660,-0.00568936,-0.16417822,0.37508398,-0.15348412,-0.00884913,0.00334990,-0.03634576,0.03999563,0.01984022,-0.00714277,0.01855331,0.00772883,-0.00306154,0.04913568,0.13133506,13.91982174,0.52359879,0.00000000,0.00000000,1.50000000,0.05029600,0.00000000,1.00000000,89.37117767,30.00000000,1541405184.00000000,0.00000000,126088488780038144.00000000,123.00000000,0.01379711,-0.02585964,10.07572842,-0.03910245,-0.02848392,-0.07274960,0.17194855,0.04287224,-0.48735863,0.00514637,-0.01119396,0.60227579,0.30769861,-0.69971395,11.48561287,0.99944800,0.03041545,0.01336040,0.00040659,0.00291435,-0.00441368,0.02144094,0.00102424,0.00060357,0.00691042,22217608.00000000,-0.00000000,-732586304.00000000,4283.56494141,-3211715521053458432.00000000,283622065221664768.00000000,0.00000000,0.00000000,73.00013733,-10134229811724288.00000000,17729922081629812686597420333662208.00000000,0.00000000
0.04546571,0.00478586,9.79427147,-0.00957803,0.00319268,-0.04256901,0.19616699,0.07006836,-0.44342041,0.00000000,-0.00000000,0.31000000,0.01400000,0.00300000,0.01800000,-0.99080431,-0.01035268,-0.00779762,0.13468075,-0.00874122,0.01903104,-0.00584238,-0.16409118,0.37481651,-0.15318021,-0.00884913,0.00334990,-0.03634576,0.03999563,0.01984022,-0.00714277,0.01855331,0.00772883,-0.00306154,0.04949852,0.13022058,13.92026711,0.52359879,0.00000000,0.00000000,1.50000000,0.05129500,0.00000000,1.00000000,89.37724304,30.00000000,1541405184.00000000,0.00000000,126088488780038144.00000000,123.00000000,0.01103219,-0.02877281,10.10233307,-0.04215296,-0.03151310,-0.07584758,0.16965683,0.04014280,-0.49187526,0.00524473,-0.01141862,0.60233694,0.30777735,-0.69972628,11.48553181,0.99944794,0.03041619,0.01336391,0.00040670,0.00297271,-0.00450304,0.02189379,0.00104221,0.00061311,0.00704539,22217608.00000000,-0.00000000,-732586304.00000000,4283.56494141,-3211715521053458432.00000000,283622065221664768.00000000,0.00000000,0.00000000,73.00013733,-10134229811724288.00000000,17729922081629812686597420333662208.00000000,0.00000000
0.04067985,0.00957173,9.78709221,-0.00744958,0.00212845,-0.03511943,0.19561768,0.07080078,-0.44696045,0.00000000,-0.00000000,0.31000000,0.01400000,0.00300000,0.01800000,-0.99080110,-0.01032623,-0.00777707,0.13470778,-0.00895325,0.01951523,-0.00603990,-0.16398230,0.37446818,-0.15275805,-0.00884913,0.00334990,-0.03634576,0.03999563,0.01984022,-0.00714277,0.01855331,0.00772883,-0.00306154,0.04986236,0.12908567,13.92083836,0.52359879,0.00000000,0.00000000,1.50000000,0.05258800,0.00000000,1.00000000,89.38502502,30.00000000,1541405184.00000000,0.00000000,126088488780038144.00000000,123.00000000,0.00875165,-0.03120060,10.12461567,-0.04471840,-0.03405512,-0.07844667,0.16774008,0.03785206,-0.49567878,0.00537195,-0.01170914,0.60241598,0.30788589,-0.69973785,11.48536301,0.99944782,0.03041714,0.01336882,0.00040687,0.00304823,-0.00461868,0.02247966,0.00106550,0.00062549,0.00722012,22217608.00000000,-0.00000000,-732586304.00000000,4283.56494141,-3211715521053458432.00000000,283622065221664768.00000000,0.00000000,0.00000000,73.00013733,-10134229811724288.00000000,17729922081629812686597420333662208.00000000,0.00000000
0.04067985,-0.00239293,9.80623627,-0.01170648,0.00319268,-0.04576168,0.19561768,0.07080078,-0.44696045,0.00000000,-0.00000000,0.31000000,0.01400000,0.00300000,0.01800000,-0.99079919,-0.01031075,-0.00776507,0.13472348,-0.00907045,0.01978283,-0.00614895,-0.16392374,0.37427449,-0.15251155,-0.00884913,0.00334990,-0.03634576,0.03999563,0.01984022,-0.00714277,0.01855331,0.00772883,-0.00306154,0.05022904,0.12793186,13.92115402,0.52359879,0.00000000,0.00000000,1.50000000,0.05330300,0.00000000,1.00000000,89.38932800,30.00000000,1541405184.00000000,0.00000000,126088488780038144.00000000,123.00000000,0.00688893,-0.03319699,10.14286709,-0.04683092,-0.03614408,-0.08057647,0.16616869,0.03596879,-0.49882862,0.00544227,-0.01186970,0.60245961,0.30794883,-0.69974214,11.48524094,0.99944776,0.03041764,0.01337169,0.00040696,0.00308998,-0.00468261,0.02280354,0.00107839,0.00063235,0.00731676,22217608.00000000,-0.00000000,-732586304.00000000,4283.56494141,-3211715521053458432.00000000,283622065221664768.00000000,0.00000000,0.00000000,73.00013733,-10134229811724288.00000000,17729922081629812686597420333662208.00000000,0.00000000
0.05025157,0.00717880,9.80623627,-0.00744958,0.00425690,-0.04044056,0.19561768,0.07080078,-0.44696045,0.00000000,-0.00000000,0.31000000,0.01400000,0.00300000,0.01800000,-0.99079651,-0.01028831,-0.00774771,0.13474613,-0.00923315,0.02015422,-0.00630004,-0.16384438,0.37400451,-0.15215476,-0.00884913,0.00334990,-0.03634576,0.03999563,0.01984022,-0.00714277,0.01855331,0.00772883,-0.00306154,0.05060004,0.12676474,13.92158699,0.52359879,0.00000000,0.00000000,1.50000000,0.05429600,0.00000000,1.00000000,89.39522552,30.00000000,1541405184.00000000,0.00000000,126088488780038144.00000000,123.00000000,0.00539477,-0.03481204,10.15741348,-0.04852606,-0.03781005,-0.08228146,0.16491492,0.03446263,-0.50137705,0.00553989,-0.01209253,0.60252005,0.30803964,-0.69974607,11.48503780,0.99944770,0.03041835,0.01337587,0.00040710,0.00314796,-0.00477139,0.02325318,0.00109631,0.00064189,0.00745098,22217608.00000000,-0.00000000,-732586304.00000000,4283.56494141,-3211715521053458432.00000000,283622065221664768.00000000,0.00000000,0.00000000,73.00013733,-10134229811724288.00000000,17729922081629812686597420333662208.00000000,0.00000000
0.04546571,0.00000000,9.80623627,-0.00532113,0.00212845,-0.03405520,0.19586182,0.07165527,-0.44720459,0.00000000,-0.00000000,0.31000000,0.01400000,0.00300000,0.01800000,-0.99079287,-0.01025817,-0.00772445,0.13477643,-0.00944454,0.02063661,-0.00649585,-0.16374336,0.37365291,-0.15167646,-0.00884913,0.00334990,-0.03634576,0.03999563,0.01984022,-0.00714277,0.01855331,0.00772883,-0.00306154,0.05097284,0.12558801,13.92214775,0.52359879,0.00000000,0.00000000,1.50000000,0.05558700,0.00000000,1.00000000,89.40286255,30.00000000,1541405184.00000000,0.00000000,126088488780038144.00000000,123.00000000,0.00425292,-0.03606199,10.16856861,-0.04983019,-0.03908412,-0.08358410,0.16395356,0.03330549,-0.50337255,0.00566672,-0.01238196,0.60259837,0.30816147,-0.69974959,11.48474216,0.99944758,0.03041928,0.01338150,0.00040728,0.00322333,-0.00488678,0.02383744,0.00111965,0.00065434,0.00762553,22217608.00000000,-0.00000000,-732586304.00000000,4283.56494141,-3211715521053458432.00000000,283622065221664768.00000000,0.00000000,0.00000000,73.00013733,-10134229811724288.00000000,17729922081629812686597420333662208.00000000,0.00000000
0.05503744,0.00239293,9.80384254,-0.01064225,0.00000000,-0.04256901,0.19586182,0.07165527,-0.44720459,0.00000000,-0.00000000,0.31000000,0.01400000,0.00300000,0.01800000,-0.99079084,-0.01024124,-0.00771140,0.13479339,-0.00956060,0.02090139,-0.00660320,-0.16368869,0.37345949,-0.15140808,-0.00884913,0.00334990,-0.03634576,0.03999563,0.01984022,-0.00714277,0.01855331,0.00772883,-0.00306154,0.05134491,0.12440223,13.92245293,0.52359879,0.00000000,0.00000000,1.50000000,0.05629600,0.00000000,1.00000000,89.40702057,30.00000000,1541405184.00000000,0.00000000,126088488780038144.00000000,123.00000000,0.00345915,-0.03696718,10.17662716,-0.05077527,-0.04000542,-0.08450807,0.16326097,0.03247134,-0.50486356,0.00573636,-0.01254083,0.60264128,0.30822980,-0.69975072,11.48456764,0.99944752,0.03041979,0.01338466,0.00040738,0.00326471,-0.00495014,0.02415821,0.00113249,0.00066119,0.00772140,22217608.00000000,-0.00000000,-732586304.00000000,4283.56494141,-3211715521053458432.00000000,283622065221664768.00000000,0.00000000,0.00000000,73.00013733,-10134229811724288.00000000,17729922081629812686597420333662208.00000000,0.00000000
0.04307278,-0.00239293,9.81102180,-0.00957803,0.00212845,-0.04044056,0.19586182,0.07165527,-0.44720459,0.00000000,-0.00000000,0.31000000,0.01400000,0.00300000,0.01800000,-0.99078792,-0.01021691,-0.00769267,0.13481769,-0.00972486,0.02127607,-0.00675482,-0.16361213,0.37318555,-0.15102272,-0.00884913,0.00334990,-0.03634576,0.03999563,0.01984022,-0.00714277,0.01855331,0.00772883,-0.00306154,0.05171829,0.12321535,13.92288303,0.52359879,0.00000000,0.00000000,1.50000000,0.05730000,0.00000000,1.00000000,89.41288757,30.00000000,1541405184.00000000,0.00000000,126088488780038144.00000000,123.00000000,0.00300240,-0.03756634,10.18188381,-0.05140207,-0.04060984,-0.08510057,0.16281424,0.03193313,-0.50589466,0.00583492,-0.01276564,0.60270196,0.30832800,-0.69975197,11.48430729,0.99944741,0.03042053,0.01338923,0.00040753,0.00332331,-0.00503985,0.02461226,0.00115068,0.00067091,0.00785719,22217608.00000000,-0.00000000,-732586304.00000000,4283.56494141,-3211715521053458432.00000000,283622065221664768.00000000,0.00000000,0.00000000,73.00013733,-10134229811724288.00000000,17729922081629812686597420333662208.00000000,0.00000000
0.04785864,-0.00478586,9.80862904,-0.00957803,0.00212845,-0.03937633,0.19812012,0.07348633,-0.44415283,0.01111983,0.00846475,0.30500001,0.00300000,0.00700000,0.01300000,-0.98839694,-0.05421185,-0.03416917,0.13771394,-0.00351089,0.01468310,-0.00411902,-0.09536778,0.22326601,-0.09833452,-0.00884913,0.00334990,-0.03634576,0.03999563,0.01984022,-0.00714277,0.01855331,0.00772883,-0.00306154,0.05211178,0.12202632,13.92315960,0.52359879,0.00000000,0.00000000,1.50000000,0.05860500,0.00000000,1.00000000,89.41664886,30.00000000,1541405184.00000000,0.00000000,126088488780038144.00000000,123.00000000,0.00284470,-0.03790841,10.18461227,-0.05173932,-0.04092459,-0.08539376,0.16259383,0.03166569,-0.50650215,0.00210654,-0.00880986,0.60164762,0.17882912,-0.42287332,11.36662102,0.99979627,0.01859132,0.00785889,0.00014614,0.00337535,-0.00513675,0.02516034,0.00110251,0.00063982,0.00803733,22217608.00000000,-0.00000000,-732586304.00000000,4283.56494141,-3211715521053458432.00000000,283622065221664768.00000000,0.00000000,0.00000000,73.00013733,-10134229811724288.00000000,17729922081629812686597420333662208.00000000,0.00000000
0.05982330,0.00957173,9.81341457,-0.00851380,0.00106423,-0.04363323,0.19812012,0.07348633,-0.44415283,0.01111983,0.00846475,0.30500001,0.00300000,0.00700000,0.01300000,-0.98839593,-0.05419450,-0.03415699,0.13773102,-0.00357656,0.01483679,-0.00418683,-0.09503298,0.22241388,-0.09812415,-0.00884913,0.00334990,-0.03634576,0.03999563,0.01984022,-0.00714277,0.01855331,0.00772883,-0.00306154,0.05250812,0.12084542,13.92345333,0.52359879,0.00000000,0.00000000,1.50000000,0.05929600,0.00000000,1.00000000,89.42065430,30.00000000,1541405184.00000000,0.00000000,126088488780038144.00000000,123.00000000,0.00296113,-0.03802015,10.18504620,-0.05180990,-0.04097815,-0.08541380,0.16258317,0.03164715,-0.50671691,0.00214594,-0.00890207,0.60167474,0.17832033,-0.42155010,11.36650848,0.99979752,0.01853339,0.00783665,0.00014527,0.00339830,-0.00518136,0.02545048,0.00107698,0.00062334,0.00813273,22217608.00000000,-0.00000000,-732586304.00000000,4283.56494141,-3211715521053458432.00000000,283622065221664768.00000000,0.00000000,0.00000000,73.00013733,-10134229811724288.00000000,17729922081629812686597420333662208.00000000,0.00000000
0.05743037,0.02153639,9.81580734,-0.00638535,0.00106423,-0.03937633,0.19812012,0.07348633,-0.44415283,0.01111983,0.00846475,0.30500001,0.00300000,0.00700000,0.01300000,-0.98839450,-0.05416945,-0.03413943,0.13775565,-0.00367120,0.01505819,-0.00428475,-0.09454796,0.22118023,-0.09782097,-0.00884913,0.00334990,-0.03634576,0.03999563,0.01984022,-0.00714277,0.01855331,0.00772883,-0.00306154,0.05290556,0.11968102,13.92387581,0.52359879,0.00000000,0.00000000,1.50000000,0.06029700,0.00000000,1.00000000,89.42640686,30.00000000,1541405184.00000000,0.00000000,126088488780038144.00000000,123.00000000,0.00334151,-0.03788054,10.18341446,-0.05163779,-0.04079978,-0.08519239,0.16276351,0.03185464,-0.50657350,0.00220272,-0.00903491,0.60171390,0.17758265,-0.41963309,11.36634731,0.99979931,0.01844946,0.00780441,0.00014402,0.00343143,-0.00524582,0.02587062,0.00103994,0.00059945,0.00827094,22217608.00000000,-0.00000000,-732586304.00000000,4283.56494141,-3211715521053458432.00000000,283622065221664768.00000000,0.00000000,0.00000000,73.00013733,-10134229811724288.00000000,17729922081629812686597420333662208.00000000,0.00000000
0.07418089,0.01196466,9.79187870,-0.00744958,0.00532113,-0.04044056,0.19757080,0.07293701,-0.44079590,0.01111983,0.00846475,0.30500001,0.00300000,0.00700000,0.01300000,-0.98839265,-0.05413744,-0.03411697,0.13778713,-0.00379246,0.01534168,-0.00441054,-0.09392226,0.21959087,-0.09743431,-0.00884913,0.00334990,-0.03634576,0.03999563,0.01984022,-0.00714277,0.01855331,0.00772883,-0.00306154,0.05330154,0.11853758,13.92442131,0.52359879,0.00000000,0.00000000,1.50000000,0.06158800,0.00000000,1.00000000,89.43383789,30.00000000,1541405184.00000000,0.00000000,126088488780038144.00000000,123.00000000,0.00397956,-0.03748036,10.17991734,-0.05124696,-0.04040824,-0.08475315,0.16311474,0.03226452,-0.50610441,0.00227547,-0.00920501,0.60176420,0.17662986,-0.41716129,11.36614895,0.99980164,0.01834122,0.00776276,0.00014241,0.00347394,-0.00532870,0.02641222,0.00099207,0.00056859,0.00844924,22217608.00000000,-0.00000000,-732586304.00000000,4283.56494141,-3211715521053458432.00000000,283622065221664768.00000000,0.00000000,0.00000000,73.00013733,-10134229811724288.00000000,17729922081629812686597420333662208.00000000,0.00000000
0.03828691,0.00717880,9.78948498,-0.00851380,0.00532113,-0.04256901,0.19757080,0.07293701,-0.44079590,0.01111983,0.00846475,0.30500001,0.00300000,0.00700000,0.01300000,-0.98839164,-0.05412015,-0.03410484,0.13780415,-0.00385862,0.01549632,-0.00447927,-0.09357923,0.21872143,-0.09722618,-0.00884913,0.00334990,-0.03634576,0.03999563,0.01984022,-0.00714277,0.01855331,0.00772883,-0.00306154,0.05369465,0.11740922,13.92471695,0.52359879,0.00000000,0.00000000,1.50000000,0.06229500,0.00000000,1.00000000,89.43786621,30.00000000,1541405184.00000000,0.00000000,126088488780038144.00000000,123.00000000,0.00484924,-0.03685353,10.17471886,-0.05066333,-0.03981601,-0.08412299,0.16361798,0.03285416,-0.50533646,0.00231517,-0.00929779,0.60179174,0.17610708,-0.41580862,11.36604881,0.99980289,0.01828198,0.00773990,0.00014153,0.00349715,-0.00537400,0.02670874,0.00096584,0.00055168,0.00854689,22217608.00000000,-0.00000000,-732586304.00000000,4283.56494141,-3211715521053458432.00000000,283622065221664768.00000000,0.00000000,0.00000000,73.00013733,-10134229811724288.00000000,17729922081629812686597420333662208.00000000,0.00000000
0.04785864,0.00000000,9.80144978,-0.00532113,0.00212845,-0.03937633,0.19757080,0.07293701,-0.44079590,0.01111983,0.00846475,0.30500001,0.00300000,0.00700000,0.01300000,-0.98839021,-0.05409612,-0.03408797,0.13782784,-0.00395180,0.01571403,-0.00457631,-0.09309300,0.21749224,-0.09693808,-0.00884913,0.00334990,-0.03634576,0.03999563,0.01984022,-0.00714277,0.01855331,0.00772883,-0.00306154,0.05408198,0.11629456,13.92513657,0.52359879,0.00000000,0.00000000,1.50000000,0.06329600,0.00000000,1.00000000,89.44358826,30.00000000,1541405184.00000000,0.00000000,126088488780038144.00000000,123.00000000,0.00588711,-0.03604207,10.16801548,-0.04990580,-0.03904623,-0.08332695,0.16425517,0.03360190,-0.50429994,0.00237108,-0.00942842,0.60183054,0.17536522,-0.41389516,11.36592007,0.99980474,0.01819814,0.00770745,0.00014029,0.00352989,-0.00543799,0.02712842,0.00092863,0.00052771,0.00868517,22217608.00000000,-0.00000000,-732586304.00000000,4283.56494141,-3211715521053458432.00000000,283622065221664768.00000000,0.00000000,0.00000000,73.00013733,-10134229811724288.00000000,17729922081629812686597420333662208.00000000,0.00000000
0.04546571,-0.00239293,9.82537937,-0.00957803,0.00106423,-0.04469746,0.19903564,0.07049561,-0.44232178,0.01111983,0.00846475,0.30500001,0.00300000,0.00700000,0.01300000,-0.98838842,-0.05406578,-0.03406667,0.13785781,-0.00407127,0.01599298,-0.00470109,-0.09246464,0.21590851,-0.09657633,-0.00884913,0.00334990,-0.03634576,0.03999563,0.01984022,-0.00714277,0.01855331,0.00772883,-0.00306154,0.05445904,0.11519656,13.92567730,0.52359879,0.00000000,0.00000000,1.50000000,0.06458800,0.00000000,1.00000000,89.45095062,30.00000000,1541405184.00000000,0.00000000,126088488780038144.00000000,123.00000000,0.00706101,-0.03508863,10.16003799,-0.04899164,-0.03812932,-0.08238496,0.16501015,0.03448376,-0.50302839,0.00244276,-0.00959579,0.60188049,0.17440526,-0.41142806,11.36577511,0.99980700,0.01809001,0.00766544,0.00013869,0.00357194,-0.00552031,0.02766987,0.00088052,0.00049672,0.00886369,22217608.00000000,-0.00000000,-732586304.00000000,4283.56494141,-3211715521053458432.00000000,283622065221664768.00000000,0.00000000,0.00000000,73.00013733,-10134229811724288.00000000,17729922081629812686597420333662208.00000000,0.00000000
0.05743037,0.00717880,9.81102180,-0.00957803,0.00212845,-0.04256901,0.19903564,0.07049561,-0.44232178,0.01111983,0.00846475,0.30500001,0.00300000,0.00700000,0.01300000,-0.98838747,-0.05404958,-0.03405529,0.13787384,-0.00413649,0.01614523,-0.00476933,-0.09211970,0.21504211,-0.09638441,-0.00884913,0.00334990,-0.03634576,0.03999563,0.01984022,-0.00714277,0.01855331,0.00772883,-0.00306154,0.05482512,0.11411577,13.92597103,0.52359879,0.00000000,0.00000000,1.50000000,0.06529600,0.00000000,1.00000000,89.45495605,30.00000000,1541405184.00000000,0.00000000,126088488780038144.00000000,123.00000000,0.00835722,-0.03402710,10.15098381,-0.04794855,-0.03708771,-0.08132190,0.16586883,0.03547458,-0.50155425,0.00248189,-0.00968714,0.60190773,0.17387778,-0.41007799,11.36570930,0.99980825,0.01803081,0.00764234,0.00013782,0.00359491,-0.00556533,0.02796650,0.00085413,0.00047973,0.00896152,22217608.00000000,-0.00000000,-732586304.00000000,4283.56494141,-3211715521053458432.00000000,283622065221664768.00000000,0.00000000,0.00000000,73.00013733,-10134229811724288.00000000,17729922081629812686597420333662208.00000000,0.00000000
0.04546571,-0.00239293,9.80384254,-0.00851380,0.00106423,-0.03724788,0.19903564,0.07049561,-0.44232178,0.01111983,0.00846475,0.30500001,0.00300000,0.00700000,0.01300000,-0.98838615,-0.05402737,-0.03403968,0.13789591,-0.00422812,0.01635905,-0.00486545,-0.09163167,0.21382076,-0.09612320,-0.00884913,0.00334990,-0.03634576,0.03999563,0.01984022,-0.00714277,0.01855331,0.00772883,-0.00306154,0.05518219,0.11305609,13.92638683,0.52359879,0.00000000,0.00000000,1.50000000,0.06629600,0.00000000,1.00000000,89.46061707,30.00000000,1541405184.00000000,0.00000000,126088488780038144.00000000,123.00000000,0.00973877,-0.03288531,10.14098644,-0.04680094,-0.03593952,-0.08015098,0.16681725,0.03655507,-0.49990711,0.00253687,-0.00981543,0.60194618,0.17313059,-0.40817389,11.36563873,0.99980998,0.01794729,0.00760961,0.00013660,0.00362723,-0.00562877,0.02838534,0.00081680,0.00045570,0.00909972,22217608.00000000,-0.00000000,-732586304.00000000,4283.56494141,-3211715521053458432.00000000,283622065221664768.00000000,0.00000000,0.00000000,73.00013733,-10134229811724288.00000000,17729922081629812686597420333662208.00000000,0.00000000
0.05025157,0.01675053,9.82059383,-0.00851380,0.00212845,-0.04363323,0.19622803,0.07135010,-0.44476318,0.01111983,0.00846475,0.30500001,0.00300000,0.00700000,0.01300000,-0.98838449,-0.05399943,-0.03402001,0.13792376,-0.00434641,0.01663496,-0.00498999,-0.09099618,0.21223639,-0.09579739,-0.00884913,0.00334990,-0.03634576,0.03999563,0.01984022,-0.00714277,0.01855331,0.00772883,-0.00306154,0.05553167,0.11202231,13.92692757,0.52359879,0.00000000,0.00000000,1.50000000,0.06759600,0.00000000,1.00000000,89.46798706,30.00000000,1541405184.00000000,0.00000000,126088488780038144.00000000,123.00000000,0.01117105,-0.03167481,10.13020802,-0.04556512,-0.03470474,-0.07888506,0.16783921,0.03771113,-0.49811774,0.00260785,-0.00998097,0.60199600,0.17215627,-0.40570220,11.36557579,0.99981225,0.01783882,0.00756691,0.00013501,0.00366902,-0.00571096,0.02892962,0.00076817,0.00042441,0.00927942,22217608.00000000,-0.00000000,-732586304.00000000,4283.56494141,-3211715521053458432.00000000,283622065221664768.00000000,0.00000000,0.00000000,73.00013733,-10134229811724288.00000000,17729922081629812686597420333662208.00000000,0.00000000
0.04307278,0.00239293,9.79187870,-0.00744958,0.00319268,-0.04363323,0.19622803,0.07135010,-0.44476318,0.01111983,0.00846475,0.30500001,0.00300000,0.00700000,0.01300000,-0.98838359,-0.05398492,-0.03400979,0.13793829,-0.00440987,0.01678293,-0.00505693,-0.09065329,0.21138501,-0.09562983,-0.00884913,0.00334990,-0.03634576,0.03999563,0.01984022,-0.00714277,0.01855331,0.00772883,-0.00306154,0.05587436,0.11101519,13.92721748,0.52359879,0.00000000,0.00000000,1.50000000,0.06829600,0.00000000,1.00000000,89.47193146,30.00000000,1541405184.00000000,0.00000000,126088488780038144.00000000,123.00000000,0.01264779,-0.03038291,10.11881256,-0.04425552,-0.03339878,-0.07755172,0.16891734,0.03892995,-0.49621794,0.00264592,-0.01006976,0.60202283,0.17163004,-0.40437371,11.36555862,0.99981350,0.01778049,0.00754383,0.00013416,0.00369145,-0.00575513,0.02922263,0.00074196,0.00040755,0.00937619,22217608.00000000,-0.00000000,-732586304.00000000,4283.56494141,-3211715521053458432.00000000,283622065221664768.00000000,0.00000000,0.00000000,73.00013733,-10134229811724288.00000000,17729922081629812686597420333662208.00000000,0.00000000
0.03350105,0.01196466,9.79427147,-0.00744958,0.00425690,-0.04044056,0.19622803,0.07135010,-0.44476318,0.01111983,0.00846475,0.30500001,0.00300000,0.00700000,0.01300000,-0.98838234,-0.05396498,-0.03399573,0.13795835,-0.00450003,0.01699310,-0.00515233,-0.09016251,0.21017146,-0.09540223,-0.00884913,0.00334990,-0.03634576,0.03999563,0.01984022,-0.00714277,0.01855331,0.00772883,-0.00306154,0.05620956,0.11003612,13.92763042,0.52359879,0.00000000,0.00000000,1.50000000,0.06929600,0.00000000,1.00000000,89.47756195,30.00000000,1541405184.00000000,0.00000000,126088488780038144.00000000,123.00000000,0.01415528,-0.02901002,10.10687923,-0.04288332,-0.03203078,-0.07616531,0.17003758,0.04019901,-0.49423245,0.00270002,-0.01019586,0.60206097,0.17087592,-0.40247923,11.36556053,0.99981517,0.01769727,0.00751075,0.00013294,0.00372337,-0.00581807,0.02964111,0.00070446,0.00038343,0.00951445,22217608.00000000,-0.00000000,-732586304.00000000,4283.56494141,-3211715521053458432.00000000,283622065221664768.00000000,0.00000000,0.00000000,73.00013733,-10134229811724288.00000000,17729922081629812686597420333662208.00000000,0.00000000
0.03110812,0.00000000,9.81102180,-0.00744958,0.00212845,-0.04576168,0.19543457,0.07031250,-0.44708252,0.01111983,0.00846475,0.30500001,0.00300000,0.00700000,0.01300000,-0.98838079,-0.05394029,-0.03397829,0.13798332,-0.00461570,0.01726262,-0.00527523,-0.08952729,0.20860736,-0.09512390,-0.00884913,0.00334990,-0.03634576,0.03999563,0.01984022,-0.00714277,0.01855331,0.00772883,-0.00306154,0.05653516,0.10908493,13.92816448,0.52359879,0.00000000,0.00000000,1.50000000,0.07058800,0.00000000,1.00000000,89.48483276,30.00000000,1541405184.00000000,0.00000000,126088488780038144.00000000,123.00000000,0.01565130,-0.02757137,10.09449673,-0.04145895,-0.03061111,-0.07473439,0.17118643,0.04150577,-0.49218336,0.00276942,-0.01035757,0.60211009,0.16989847,-0.40003601,11.36559677,0.99981737,0.01758989,0.00746784,0.00013138,0.00376439,-0.00589912,0.03018161,0.00065590,0.00035222,0.00969311,22217608.00000000,-0.00000000,-732586304.00000000,4283.56494141,-3211715521053458432.00000000,283622065221664768.00000000,0.00000000,0.00000000,73.00013733,-10134229811724288.00000000,17729922081629812686597420333662208.00000000,0.00000000
0.04307278,0.00000000,9.80862904,-0.00744958,0.00212845,-0.03937633,0.19543457,0.07031250,-0.44708252,0.01111983,0.00846475,0.30500001,0.00300000,0.00700000,0.01300000,-0.98837996,-0.05392736,-0.03396914,0.13799649,-0.00467884,0.01740971,-0.00534247,-0.08917850,0.20775221,-0.09498026,-0.00884913,0.00334990,-0.03634576,0.03999563,0.01984022,-0.00714277,0.01855331,0.00772883,-0.00306154,0.05684847,0.10815908,13.92845631,0.52359879,0.00000000,0.00000000,1.50000000,0.07129600,0.00000000,1.00000000,89.48881531,30.00000000,1541405184.00000000,0.00000000,126088488780038144.00000000,123.00000000,0.01711072,-0.02610185,10.08179379,-0.03999387,-0.02915387,-0.07327377,0.17234969,0.04283820,-0.49009359,0.00280730,-0.01044582,0.60213703,0.16936123,-0.39869988,11.36563587,0.99981862,0.01753113,0.00744424,0.00013053,0.00378680,-0.00594345,0.03047774,0.00062927,0.00033510,0.00979103,22217608.00000000,-0.00000000,-732586304.00000000,4283.56494141,-3211715521053458432.00000000,283622065221664768.00000000,0.00000000,0.00000000,73.00013733,-10134229811724288.00000000,17729922081629812686597420333662208.00000000,0.00000000
0.04307278,-0.01196466,9.80384254,-0.00744958,0.00319268,-0.03618366,0.19543457,0.07031250,-0.44708252,0.01111983,0.00846475,0.30500001,0.00300000,0.00700000,0.01300000,-0.98837882,-0.05390998,-0.03395683,0.13801432,-0.00476744,0.01761605,-0.00543717,-0.08868548,0.20654844,-0.09479031,-0.00884913,0.00334990,-0.03634576,0.03999563,0.01984022,-0.00714277,0.01855331,0.00772883,-0.00306154,0.05714712,0.10725909,13.92886829,0.52359879,0.00000000,0.00000000,1.50000000,0.07229500,0.00000000,1.00000000,89.49442291,30.00000000,1541405184.00000000,0.00000000,126088488780038144.00000000,123.00000000,0.01853262,-0.02465104,10.06886768,-0.03850019,-0.02767070,-0.07178446,0.17351785,0.04418587,-0.48798138,0.00286046,-0.01056963,0.60217488,0.16860096,-0.39681834,11.36571884,0.99982029,0.01744835,0.00741083,0.00012933,0.00381828,-0.00600582,0.03089551,0.00059162,0.00031092,0.00992920,22217608.00000000,-0.00000000,-732586304.00000000,4283.56494141,-3211715521053458432.00000000,283622065221664768.00000000,0.00000000,0.00000000,73.00013733,-10134229811724288.00000000,17729922081629812686597420333662208.00000000,0.00000000
0.02871519,-0.00478586,9.79905701,-0.01170648,0.00319268,-0.04576168,0.19726562,0.07196045,-0.44561768,0.01111983,0.00846475,0.30500001,0.00300000,0.00700000,0.01300000,-0.98837745,-0.05388863,-0.03394167,0.13803639,-0.00488119,0.01788090,-0.00555934,-0.08804689,0.20499541,-0.09456126,-0.00884913,0.00334990,-0.03634576,0.03999563,0.01984022,-0.00714277,0.01855331,0.00772883,-0.00306154,0.05743206,0.10638493,13.92940140,0.52359879,0.00000000,0.00000000,1.50000000,0.07358700,0.00000000,1.00000000,89.50168610,30.00000000,1541405184.00000000,0.00000000,126088488780038144.00000000,123.00000000,0.01990003,-0.02325121,10.05580902,-0.03699522,-0.02617134,-0.07027664,0.17468782,0.04554099,-0.48585972,0.00292872,-0.01072854,0.60222375,0.16761488,-0.39438933,11.36586285,0.99982250,0.01734143,0.00736747,0.00012779,0.00385878,-0.00608622,0.03143565,0.00054284,0.00027958,0.01010792,22217608.00000000,-0.00000000,-732586304.00000000,4283.56494141,-3211715521053458432.00000000,283622065221664768.00000000,0.00000000,0.00000000,73.00013733,-10134229811724288.00000000,17729922081629812686597420333662208.00000000,0.00000000
0.02392932,0.00478586,9.81580734,-0.00851380,0.00425690,-0.03937633,0.19726562,0.07196045,-0.44561768,0.01111983,0.00846475,0.30500001,0.00300000,0.00700000,0.01300000,-0.98837674,-0.05387754,-0.03393377,0.13804796,-0.00494337,0.01802564,-0.00562630,-0.08769590,0.20414509,-0.09444472,-0.00884913,0.00334990,-0.03634576,0.03999563,0.01984022,-0.00714277,0.01855331,0.00772883,-0.00306154,0.05770750,0.10553376,13.92969322,0.52359879,0.00000000,0.00000000,1.50000000,0.07429600,0.00000000,1.00000000,89.50566101,30.00000000,1541405184.00000000,0.00000000,126088488780038144.00000000,123.00000000,0.02118615,-0.02189201,10.04273319,-0.03549502,-0.02466592,-0.06876967,0.17585887,0.04689773,-0.48373911,0.00296602,-0.01081538,0.60225052,0.16707239,-0.39305907,11.36596203,0.99982369,0.01728285,0.00734360,0.00012694,0.00388092,-0.00613025,0.03173203,0.00051603,0.00026237,0.01020600,22217608.00000000,-0.00000000,-732586304.00000000,4283.56494141,-3211715521053458432.00000000,283622065221664768.00000000,0.00000000,0.00000000,73.00013733,-10134229811724288.00000000,17729922081629812686597420333662208.00000000,0.00000000
0.02871519,0.00239293,9.80862904,-0.00744958,0.00212845,-0.03937633,0.19726562,0.07196045,-0.44561768,0.01111983,0.00846475,0.30500001,0.00300000,0.00700000,0.01300000,-0.98837572,-0.05386274,-0.03392323,0.13806355,-0.00503066,0.01822879,-0.00572069,-0.08719970,0.20294733,-0.09429301,-0.00884913,0.00334990,-0.03634576,0.03999563,0.01984022,-0.00714277,0.01855331,0.00772883,-0.00306154,0.05797530,0.10470650,13.93010616,0.52359879,0.00000000,0.00000000,1.50000000,0.07529700,0.00000000,1.00000000,89.51129150,30.00000000,1541405184.00000000,0.00000000,126088488780038144.00000000,123.00000000,0.02239350,-0.02055050,10.02974033,-0.03400314,-0.02316400,-0.06726141,0.17702681,0.04824991,-0.48162961,0.00301839,-0.01093728,0.60228831,0.16630462,-0.39118451,11.36612988,0.99982536,0.01720024,0.00730980,0.00012575,0.00391206,-0.00619224,0.03215040,0.00047813,0.00023803,0.01034450,22217608.00000000,-0.00000000,-732586304.00000000,4283.56494141,-3211715521053458432.00000000,283622065221664768.00000000,0.00000000,0.00000000,73.00013733,-10134229811724288.00000000,17729922081629812686597420333662208.00000000,0.00000000
0.04067985,-0.00239293,9.79666424,-0.01170648,0.00532113,-0.04469746,0.19946289,0.07263184,-0.44287109,0.01111983,0.00846475,0.30500001,0.00300000,0.00700000,0.01300000,-0.98837447,-0.05384477,-0.03391041,0.13808265,-0.00514232,0.01848861,-0.00584210,-0.08655949,0.20140742,-0.09411385,-0.00884913,0.00334990,-0.03634576,0.03999563,0.01984022,-0.00714277,0.01855331,0.00772883,-0.00306154,0.05823711,0.10390315,13.93063736,0.52359879,0.00000000,0.00000000,1.50000000,0.07658700,0.00000000,1.00000000,89.51852417,30.00000000,1541405184.00000000,0.00000000,126088488780038144.00000000,123.00000000,0.02354515,-0.01923297,10.01686287,-0.03252688,-0.02167112,-0.06575836,0.17818794,0.04959297,-0.47953674,0.00308539,-0.01109317,0.60233682,0.16531275,-0.38877288,11.36638165,0.99982750,0.01709392,0.00726612,0.00012423,0.00395196,-0.00627185,0.03268945,0.00042918,0.00020661,0.01052299,22217608.00000000,-0.00000000,-732586304.00000000,4283.56494141,-3211715521053458432.00000000,283622065221664768.00000000,0.00000000,0.00000000,73.00013733,-10134229811724288.00000000,17729922081629812686597420333662208.00000000,0.00000000
0.02871519,0.00478586,9.77752113,-0.00957803,0.00532113,-0.03618366,0.19946289,0.07263184,-0.44287109,0.01111983,0.00846475,0.30500001,0.00300000,0.00700000,0.01300000,-0.98837382,-0.05383550,-0.03390379,0.13809261,-0.00520335,0.01863061,-0.00590867,-0.08620768,0.20056412,-0.09402445,-0.00884913,0.00334990,-0.03634576,0.03999563,0.01984022,-0.00714277,0.01855331,0.00772883,-0.00306154,0.05849776,0.10311703,13.93092918,0.52359879,0.00000000,0.00000000,1.50000000,0.07729500,0.00000000,1.00000000,89.52249908,30.00000000,1541405184.00000000,0.00000000,126088488780038144.00000000,123.00000000,0.02463560,-0.01794202,10.00408363,-0.03107965,-0.02018683,-0.06427451,0.17934191,0.05092431,-0.47746190,0.00312201,-0.01117836,0.60236347,0.16476722,-0.38745189,11.36653900,0.99982870,0.01703566,0.00724208,0.00012339,0.00397378,-0.00631545,0.03298527,0.00040228,0.00018935,0.01062097,22217608.00000000,-0.00000000,-732586304.00000000,4283.56494141,-3211715521053458432.00000000,283622065221664768.00000000,0.00000000,0.00000000,73.00013733,-10134229811724288.00000000,17729922081629812686597420333662208.00000000,0.00000000
0.06460917,0.01435759,9.78948498,-0.00744958,0.00425690,-0.03937633,0.19946289,0.07263184,-0.44287109,0.01111983,0.00846475,0.30500001,0.00300000,0.00700000,0.01300000,-0.98837292,-0.05382322,-0.03389502,0.13810596,-0.00528924,0.01883038,-0.00600277,-0.08570924,0.19937330,-0.09391043,-0.00884913,0.00334990,-0.03634576,0.03999563,0.01984022,-0.00714277,0.01855331,0.00772883,-0.00306154,0.05875931,0.10234407,13.93134212,0.52359879,0.00000000,0.00000000,1.50000000,0.07829700,0.00000000,1.00000000,89.52812958,30.00000000,1541405184.00000000,0.00000000,126088488780038144.00000000,123.00000000,0.02567468,-0.01665114,9.99142551,-0.02966215,-0.01871599,-0.06280857,0.18048610,0.05223931,-0.47541091,0.00317354,-0.01129823,0.60240114,0.16399355,-0.38558573,11.36678982,0.99983031,0.01695331,0.00720797,0.00012222,0.00400453,-0.00637699,0.03340390,0.00036414,0.00016489,0.01075963,22217608.00000000,-0.00000000,-732586304.00000000,4283.56494141,-3211715521053458432.00000000,283622065221664768.00000000,0.00000000,0.00000000,73.00013733,-10134229811724288.00000000,17729922081629812686597420333662208.00000000,0.00000000
0.05264451,0.00478586,9.79905701,-0.00744958,0.00532113,-0.04363323,0.19934082,0.07220459,-0.44110107,0.01111983,0.00846475,0.30500001,0.00300000,0.00700000,0.01300000,-0.98837179,-0.05380845,-0.03388447,0.13812220,-0.00539897,0.01908560,-0.00612374,-0.08506686,0.19784372,-0.09377945,-0.00884913,0.00334990,-0.03634576,0.03999563,0.01984022,-0.00714277,0.01855331,0.00772883,-0.00306154,0.05901977,0.10158198,13.93187618,0.52359879,0.00000000,0.00000000,1.50000000,0.07958700,0.00000000,1.00000000,89.53540039,30.00000000,1541405184.00000000,0.00000000,126088488780038144.00000000,123.00000000,0.02672483,-0.01535070,9.97897148,-0.02827126,-0.01726773,-0.06137032,0.18161631,0.05353111,-0.47339028,0.00323938,-0.01145136,0.60244954,0.16299513,-0.38318706,11.36714745,0.99983245,0.01684741,0.00716393,0.00012071,0.00404390,-0.00645593,0.03394278,0.00031494,0.00013333,0.01093817,22217608.00000000,-0.00000000,-732586304.00000000,4283.56494141,-3211715521053458432.00000000,283622065221664768.00000000,0.00000000,0.00000000,73.00013733,-10134229811724288.00000000,17729922081629812686597420333662208.00000000,0.00000000
0.08614556,0.01675053,9.77034187,-0.00744958,0.00532113,-0.03724788,0.19934082,0.07220459,-0.44110107,0.01111983,0.00846475,0.30500001,0.00300000,0.00700000,0.01300000,-0.98837119,-0.05380083,-0.03387903,0.13813071,-0.00545962,0.01922665,-0.00619084,-0.08470981,0.19699654,-0.09371539,-0.00884913,0.00334990,-0.03634576,0.03999563,0.01984022,-0.00714277,0.01855331,0.00772883,-0.00306154,0.05927701,0.10082521,13.93217373,0.52359879,0.00000000,0.00000000,1.50000000,0.08030300,0.00000000,1.00000000,89.53945923,30.00000000,1541405184.00000000,0.00000000,126088488780038144.00000000,123.00000000,0.02785342,-0.01405181,9.96675873,-0.02691070,-0.01584639,-0.05996721,0.18272890,0.05479313,-0.47140321,0.00327577,-0.01153599,0.60247636,0.16243970,-0.38185820,11.36736393,0.99983358,0.01678872,0.00713942,0.00011988,0.00406567,-0.00649965,0.03424186,0.00028760,0.00011579,0.01103728,22217608.00000000,-0.00000000,-732586304.00000000,4283.56494141,-3211715521053458432.00000000,283622065221664768.00000000,0.00000000,0.00000000,73.00013733,-10134229811724288.00000000,17729922081629812686597420333662208.00000000,0.00000000
0.11725368,0.03828691,9.78230667,-0.00851380,0.00425690,-0.04469746,0.19934082,0.07220459,-0.44110107,0.01111983,0.00846475,0.30500001,0.00300000,0.00700000,0.01300000,-0.98837042,-0.05379102,-0.03387203,0.13814183,-0.00554325,0.01942110,-0.00628382,-0.08421374,0.19582412,-0.09363830,-0.00884913,0.00334990,-0.03634576,0.03999563,0.01984022,-0.00714277,0.01855331,0.00772883,-0.00306154,0.05952962,0.10007177,13.93258476,0.52359879,0.00000000,0.00000000,1.50000000,0.08129600,0.00000000,1.00000000,89.54505920,30.00000000,1541405184.00000000,0.00000000,126088488780038144.00000000,123.00000000,0.02916907,-0.01271592,9.95477104,-0.02558584,-0.01445645,-0.05859775,0.18381973,0.05602098,-0.46945456,0.00332595,-0.01165266,0.60251355,0.16166715,-0.38001832,11.36769104,0.99983519,0.01670742,0.00710532,0.00011873,0.00409572,-0.00656011,0.03465663,0.00024961,0.00009143,0.01117473,22217608.00000000,-0.00000000,-732586304.00000000,4283.56494141,-3211715521053458432.00000000,283622065221664768.00000000,0.00000000,0.00000000,73.00013733,-10134229811724288.00000000,17729922081629812686597420333662208.00000000,0.00000000
0.11486074,0.00957173,9.80144978,-0.00851380,0.00319268,-0.04150478,0.19732666,0.07153320,-0.44396973,0.01111983,0.00846475,0.30500001,0.00300000,0.00700000,0.01300000,-0.98836946,-0.05377923,-0.03386363,0.13815542,-0.00565122,0.01967214,-0.00640470,-0.08356681,0.19430189,-0.09355294,-0.00884913,0.00334990,-0.03634576,0.03999563,0.01984022,-0.00714277,0.01855331,0.00772883,-0.00306154,0.05977669,0.09932160,13.93312550,0.52359879,0.00000000,0.00000000,1.50000000,0.08258800,0.00000000,1.00000000,89.55242157,30.00000000,1541405184.00000000,0.00000000,126088488780038144.00000000,123.00000000,0.03075946,-0.01131993,9.94307041,-0.02430077,-0.01310533,-0.05727353,0.18488178,0.05721119,-0.46755373,0.00339073,-0.01180328,0.60256189,0.16065815,-0.37762779,11.36814880,0.99983728,0.01660175,0.00706076,0.00011724,0.00413460,-0.00663849,0.03519626,0.00020007,0.00005968,0.01135358,22217608.00000000,-0.00000000,-732586304.00000000,4283.56494141,-3211715521053458432.00000000,283622065221664768.00000000,0.00000000,0.00000000,73.00013733,-10134229811724288.00000000,17729922081629812686597420333662208.00000000,0.00000000
0.08853849,0.00717880,9.80862904,-0.00851380,0.00212845,-0.03724788,0.19732666,0.07153320,-0.44396973,0.01111983,0.00846475,0.30500001,0.00300000,0.00700000,0.01300000,-0.98836893,-0.05377328,-0.03385940,0.13816240,-0.00571013,0.01980911,-0.00647090,-0.08321125,0.19346935,-0.09351410,-0.00884913,0.00334990,-0.03634576,0.03999563,0.01984022,-0.00714277,0.01855331,0.00772883,-0.00306154,0.06001737,0.09857395,13.93341923,0.52359879,0.00000000,0.00000000,1.50000000,0.08329600,0.00000000,1.00000000,89.55642700,30.00000000,1541405184.00000000,0.00000000,126088488780038144.00000000,123.00000000,0.03258534,-0.00991725,9.93176460,-0.02305819,-0.01180085,-0.05599654,0.18590668,0.05835995,-0.46571198,0.00342608,-0.01188547,0.60258836,0.16010301,-0.37632000,11.36841774,0.99983841,0.01654391,0.00703623,0.00011643,0.00415583,-0.00668134,0.03549196,0.00017289,0.00004225,0.01145159,22217608.00000000,-0.00000000,-732586304.00000000,4283.56494141,-3211715521053458432.00000000,283622065221664768.00000000,0.00000000,0.00000000,73.00013733,-10134229811724288.00000000,17729922081629812686597420333662208.00000000,0.00000000
0.08614556,0.01435759,9.79187870,-0.00744958,0.00425690,-0.04256901,0.19732666,0.07153320,-0.44396973,0.01111983,0.00846475,0.30500001,0.00300000,0.00700000,0.01300000,-0.98836827,-0.05376558,-0.03385393,0.13817167,-0.00579284,0.02000141,-0.00656437,-0.08270743,0.19229564,-0.09347003,-0.00884913,0.00334990,-0.03634576,0.03999563,0.01984022,-0.00714277,0.01855331,0.00772883,-0.00306154,0.06025049,0.09783146,13.93383980,0.52359879,0.00000000,0.00000000,1.50000000,0.08429600,0.00000000,1.00000000,89.56215668,30.00000000,1541405184.00000000,0.00000000,126088488780038144.00000000,123.00000000,0.03456562,-0.00853234,9.92088890,-0.02186000,-0.01054696,-0.05476476,0.18689039,0.05946442,-0.46393630,0.00347570,-0.01200085,0.60262579,0.15931530,-0.37447536,11.36882114,0.99984002,0.01646230,0.00700142,0.00011528,0.00418567,-0.00674169,0.03590962,0.00013444,0.00001761,0.01159004,22217608.00000000,-0.00000000,-732586304.00000000,4283.56494141,-3211715521053458432.00000000,283622065221664768.00000000,0.00000000,0.00000000,73.00013733,-10134229811724288.00000000,17729922081629812686597420333662208.00000000,0.00000000
0.07178796,0.00478586,9.81341457,-0.00957803,0.00319268,-0.04150478,0.19567871,0.06988525,-0.44628906,0.01111983,0.00846475,0.30500001,0.00300000,0.00700000,0.01300000,-0.98836744,-0.05375650,-0.03384748,0.13818286,-0.00589885,0.02024790,-0.00668508,-0.08205429,0.19078200,-0.09342647,-0.00884913,0.00334990,-0.03634576,0.03999563,0.01984022,-0.00714277,0.01855331,0.00772883,-0.00306154,0.06047611,0.09709601,13.93438530,0.52359879,0.00000000,0.00000000,1.50000000,0.08558800,0.00000000,1.00000000,89.56958771,30.00000000,1541405184.00000000,0.00000000,126088488780038144.00000000,123.00000000,0.03664678,-0.00716703,9.91046143,-0.02071039,-0.00934454,-0.05358706,0.18782958,0.06052048,-0.46223402,0.00353931,-0.01214874,0.60267407,0.15829246,-0.37209469,11.36937046,0.99984205,0.01635695,0.00695619,0.00011380,0.00422399,-0.00681937,0.03644923,0.00008464,-0.00001431,0.01176892,22217608.00000000,-0.00000000,-732586304.00000000,4283.56494141,-3211715521053458432.00000000,283622065221664768.00000000,0.00000000,0.00000000,73.00013733,-10134229811724288.00000000,17729922081629812686597420333662208.00000000,0.00000000
0.05743037,-0.00478586,9.81580734,-0.00744958,0.00319268,-0.03618366,0.19567871,0.06988525,-0.44628906,0.01111983,0.00846475,0.30500001,0.00300000,0.00700000,0.01300000,-0.98836702,-0.05375198,-0.03384428,0.13818859,-0.00595669,0.02038239,-0.00675121,-0.08169509,0.18995389,-0.09340958,-0.00884913,0.00334990,-0.03634576,0.03999563,0.01984022,-0.00714277,0.01855331,0.00772883,-0.00306154,0.06069551,0.09636813,13.93468475,0.52359879,0.00000000,0.00000000,1.50000000,0.08629600,0.00000000,1.00000000,89.57366943,30.00000000,1541405184.00000000,0.00000000,126088488780038144.00000000,123.00000000,0.03874873,-0.00587141,9.90054226,-0.01961286,-0.00819663,-0.05245688,0.18871917,0.06152290,-0.46061474,0.00357402,-0.01222943,0.60270047,0.15772930,-0.37079179,11.36968708,0.99984318,0.01629927,0.00693129,0.00011299,0.00424491,-0.00686184,0.03674494,0.00005731,-0.00003181,0.01186695,22217608.00000000,-0.00000000,-732586304.00000000,4283.56494141,-3211715521053458432.00000000,283622065221664768.00000000,0.00000000,0.00000000,73.00013733,-10134229811724288.00000000,17729922081629812686597420333662208.00000000,0.00000000
0.06221624,-0.01914346,9.80144978,-0.01064225,0.00212845,-0.04044056,0.19567871,0.06988525,-0.44628906,0.01111983,0.00846475,0.30500001,0.00300000,0.00700000,0.01300000,-0.98836631,-0.05374619,-0.03384018,0.13819611,-0.00603788,0.02057117,-0.00684461,-0.08118605,0.18878601,-0.09339509,-0.00884913,0.00334990,-0.03634576,0.03999563,0.01984022,-0.00714277,0.01855331,0.00772883,-0.00306154,0.06090987,0.09565131,13.93510723,0.52359879,0.00000000,0.00000000,1.50000000,0.08729600,0.00000000,1.00000000,89.57942200,30.00000000,1541405184.00000000,0.00000000,126088488780038144.00000000,123.00000000,0.04078099,-0.00470994,9.89114857,-0.01856824,-0.00710598,-0.05136393,0.18955705,0.06246983,-0.45908204,0.00362273,-0.01234270,0.60273784,0.15693010,-0.36895335,11.37015533,0.99984473,0.01621785,0.00689594,0.00011185,0.00427431,-0.00692165,0.03716262,0.00001864,-0.00005659,0.01200541,22217608.00000000,-0.00000000,-732586304.00000000,4283.56494141,-3211715521053458432.00000000,283622065221664768.00000000,0.00000000,0.00000000,73.00013733,-10134229811724288.00000000,17729922081629812686597420333662208.00000000,0.00000000
0.05025157,-0.00239293,9.81820011,-0.00851380,0.00212845,-0.03831211,0.19586182,0.07153320,-0.44659424,0.01111983,0.00846475,0.30500001,0.00300000,0.00700000,0.01300000,-0.98836565,-0.05373948,-0.03383544,0.13820517,-0.00614184,0.02081295,-0.00696517,-0.08052685,0.18728039,-0.09338780,-0.00884913,0.00334990,-0.03634576,0.03999563,0.01984022,-0.00714277,0.01855331,0.00772883,-0.00306154,0.06112071,0.09494877,13.93565559,0.52359879,0.00000000,0.00000000,1.50000000,0.08858700,0.00000000,1.00000000,89.58689117,30.00000000,1541405184.00000000,0.00000000,126088488780038144.00000000,123.00000000,0.04269005,-0.00369711,9.88226318,-0.01757790,-0.00607314,-0.05031373,0.19034363,0.06336354,-0.45763546,0.00368510,-0.01248777,0.60278606,0.15589355,-0.36658123,11.37078476,0.99984676,0.01611278,0.00685007,0.00011039,0.00431204,-0.00699856,0.03770187,-0.00003139,-0.00008864,0.01218418,22217608.00000000,-0.00000000,-732586304.00000000,4283.56494141,-3211715521053458432.00000000,283622065221664768.00000000,0.00000000,0.00000000,73.00013733,-10134229811724288.00000000,17729922081629812686597420333662208.00000000,0.00000000
0.07178796,-0.00239293,9.88280964,-0.00744958,0.00106423,-0.03831211,0.19586182,0.07153320,-0.44659424,0.01111983,0.00846475,0.30500001,0.00300000,0.00700000,0.01300000,-0.98836529,-0.05373618,-0.03383310,0.13820979,-0.00619883,0.02094552,-0.00703157,-0.08016275,0.18645218,-0.09338967,-0.00884913,0.00334990,-0.03634576,0.03999563,0.01984022,-0.00714277,0.01855331,0.00772883,-0.00306154,0.06132801,0.09426272,13.93595695,0.52359879,0.00000000,0.00000000,1.50000000,0.08929800,0.00000000,1.00000000,89.59099579,30.00000000,1541405184.00000000,0.00000000,126088488780038144.00000000,123.00000000,0.04447291,-0.00279573,9.87398052,-0.01663878,-0.00509942,-0.04930921,0.19107969,0.06420764,-0.45627466,0.00371930,-0.01256731,0.60281265,0.15532042,-0.36527589,11.37114429,0.99984783,0.01605494,0.00682471,0.00010959,0.00433273,-0.00704082,0.03799887,-0.00005898,-0.00010631,0.01228263,22217608.00000000,-0.00000000,-732586304.00000000,4283.56494141,-3211715521053458432.00000000,283622065221664768.00000000,0.00000000,0.00000000,73.00013733,-10134229811724288.00000000,17729922081629812686597420333662208.00000000,0.00000000
0.05025157,0.00478586,9.89955997,-0.00851380,0.00106423,-0.04469746,0.19586182,0.07153320,-0.44659424,0.01111983,0.00846475,0.30500001,0.00300000,0.00700000,0.01300000,-0.98836476,-0.05373205,-0.03383018,0.13821580,-0.00627832,0.02113044,-0.00712479,-0.07965028,0.18529095,-0.09339976,-0.00884913,0.00334990,-0.03634576,0.03999563,0.01984022,-0.00714277,0.01855331,0.00772883,-0.00306154,0.06153047,0.09359783,13.93638039,0.52359879,0.00000000,0.00000000,1.50000000,0.09029600,0.00000000,1.00000000,89.59676361,30.00000000,1541405184.00000000,0.00000000,126088488780038144.00000000,123.00000000,0.04615569,-0.00197845,9.86647224,-0.01574863,-0.00418774,-0.04835626,0.19176646,0.06500401,-0.45499894,0.00376700,-0.01267826,0.60284990,0.15451275,-0.36344454,11.37166500,0.99984938,0.01597379,0.00678896,0.00010846,0.00436164,-0.00709995,0.03841579,-0.00009778,-0.00013116,0.01242083,22217608.00000000,-0.00000000,-732586304.00000000,4283.56494141,-3211715521053458432.00000000,283622065221664768.00000000,0.00000000,0.00000000,73.00013733,-10134229811724288.00000000,17729922081629812686597420333662208.00000000,0.00000000
0.03828691,0.01196466,9.82537937,-0.00744958,0.00319268,-0.03618366,0.19720459,0.07214355,-0.44421387,0.01111983,0.00846475,0.30500001,0.00300000,0.00700000,0.01300000,-0.98836410,-0.05372734,-0.03382684,0.13822299,-0.00638037,0.02136789,-0.00724549,-0.07898518,0.18378915,-0.09342153,-0.00884913,0.00334990,-0.03634576,0.03999563,0.01984022,-0.00714277,0.01855331,0.00772883,-0.00306154,0.06172770,0.09295836,13.93692589,0.52359879,0.00000000,0.00000000,1.50000000,0.09158800,0.00000000,1.00000000,89.60419464,30.00000000,1541405184.00000000,0.00000000,126088488780038144.00000000,123.00000000,0.04771401,-0.00122315,9.85972118,-0.01490885,-0.00333741,-0.04745810,0.19240730,0.06575482,-0.45380414,0.00382822,-0.01282074,0.60289824,0.15346295,-0.36107397,11.37235928,0.99985135,0.01586871,0.00674248,0.00010701,0.00439882,-0.00717621,0.03895557,-0.00014813,-0.00016341,0.01259975,22217608.00000000,-0.00000000,-732586304.00000000,4283.56494141,-3211715521053458432.00000000,283622065221664768.00000000,0.00000000,0.00000000,73.00013733,-10134229811724288.00000000,17729922081629812686597420333662208.00000000,0.00000000
0.02632225,0.00957173,9.73923397,-0.00957803,0.00000000,-0.03831211,0.19720459,0.07214355,-0.44421387,0.01111983,0.00846475,0.30500001,0.00300000,0.00700000,0.01300000,-0.98836374,-0.05372506,-0.03382521,0.13822667,-0.00643666,0.02149889,-0.00731239,-0.07861575,0.18295765,-0.09343807,-0.00884913,0.00334990,-0.03634576,0.03999563,0.01984022,-0.00714277,0.01855331,0.00772883,-0.00306154,0.06191989,0.09234737,13.93722820,0.52359879,0.00000000,0.00000000,1.50000000,0.09230400,0.00000000,1.00000000,89.60831451,30.00000000,1541405184.00000000,0.00000000,126088488780038144.00000000,123.00000000,0.04909306,-0.00050132,9.85346699,-0.01411919,-0.00254702,-0.04660288,0.19300699,0.06646366,-0.45268324,0.00386200,-0.01289934,0.60292500,0.15287930,-0.35976094,11.37275410,0.99985248,0.01581050,0.00671664,0.00010621,0.00441934,-0.00721836,0.03925473,-0.00017607,-0.00018130,0.01269891,22217608.00000000,-0.00000000,-732586304.00000000,4283.56494141,-3211715521053458432.00000000,283622065221664768.00000000,0.00000000,0.00000000,73.00013733,-10134229811724288.00000000,17729922081629812686597420333662208.00000000,0.00000000
0.03828691,0.01914346,9.75119877,-0.00851380,0.00106423,-0.03937633,0.19720459,0.07214355,-0.44421387,0.01111983,0.00846475,0.30500001,0.00300000,0.00700000,0.01300000,-0.98836333,-0.05372231,-0.03382323,0.13823140,-0.00651461,0.02168033,-0.00740567,-0.07809985,0.18179978,-0.09346705,-0.00884913,0.00334990,-0.03634576,0.03999563,0.01984022,-0.00714277,0.01855331,0.00772883,-0.00306154,0.06210726,0.09176984,13.93764687,0.52359879,0.00000000,0.00000000,1.50000000,0.09330200,0.00000000,1.00000000,89.61402130,30.00000000,1541405184.00000000,0.00000000,126088488780038144.00000000,123.00000000,0.05027004,0.00021305,9.84748650,-0.01337930,-0.00181813,-0.04578998,0.19356802,0.06713225,-0.45163211,0.00390876,-0.01300820,0.60296226,0.15206331,-0.35793126,11.37331676,0.99985397,0.01572938,0.00668051,0.00010510,0.00444780,-0.00727693,0.03967175,-0.00021509,-0.00020629,0.01283712,22217608.00000000,-0.00000000,-732586304.00000000,4283.56494141,-3211715521053458432.00000000,283622065221664768.00000000,0.00000000,0.00000000,73.00013733,-10134229811724288.00000000,17729922081629812686597420333662208.00000000,0.00000000
0.01675053,-0.00239293,9.77752113,-0.00638535,0.00212845,-0.03299098,0.19940186,0.07397461,-0.43969727,0.01111983,0.00846475,0.30500001,0.00300000,0.00700000,0.01300000,-0.98836279,-0.05371929,-0.03382101,0.13823697,-0.00661411,0.02191203,-0.00752583,-0.07743460,0.18031041,-0.09351169,-0.00884913,0.00334990,-0.03634576,0.03999563,0.01984022,-0.00714277,0.01855331,0.00772883,-0.00306154,0.06228821,0.09122891,13.93818665,0.52359879,0.00000000,0.00000000,1.50000000,0.09458700,0.00000000,1.00000000,89.62137604,30.00000000,1541405184.00000000,0.00000000,126088488780038144.00000000,123.00000000,0.05122341,0.00092203,9.84174252,-0.01268461,-0.00114624,-0.04501820,0.19409411,0.06776278,-0.45064265,0.00396847,-0.01314722,0.60301036,0.15100969,-0.35557574,11.37405777,0.99985594,0.01562493,0.00663385,0.00010367,0.00448419,-0.00735203,0.04020877,-0.00026545,-0.00023854,0.01301508,22217608.00000000,-0.00000000,-732586304.00000000,4283.56494141,-3211715521053458432.00000000,283622065221664768.00000000,0.00000000,0.00000000,73.00013733,-10134229811724288.00000000,17729922081629812686597420333662208.00000000,0.00000000
0.06460917,-0.08853849,9.58608627,-0.00744958,0.00106423,-0.03831211,0.19940186,0.07397461,-0.43969727,0.01111983,0.00846475,0.30500001,0.00300000,0.00700000,0.01300000,-0.98836249,-0.05371789,-0.03381996,0.13823979,-0.00666867,0.02203911,-0.00759206,-0.07706767,0.17949054,-0.09354033,-0.00884913,0.00334990,-0.03634576,0.03999563,0.01984022,-0.00714277,0.01855331,0.00772883,-0.00306154,0.06245998,0.09072494,13.93848324,0.52359879,0.00000000,0.00000000,1.50000000,0.09529500,0.00000000,1.00000000,89.62541199,30.00000000,1541405184.00000000,0.00000000,126088488780038144.00000000,123.00000000,0.05196965,0.00148127,9.83597374,-0.01203084,-0.00052602,-0.04427798,0.19459157,0.06835917,-0.44970185,0.00400120,-0.01322347,0.60303682,0.15042815,-0.35427850,11.37447453,0.99985701,0.01556740,0.00660809,0.00010289,0.00450417,-0.00739331,0.04050468,-0.00029323,-0.00025632,0.01311313,22217608.00000000,-0.00000000,-732586304.00000000,4283.56494141,-3211715521053458432.00000000,283622065221664768.00000000,0.00000000,0.00000000,73.00013733,-10134229811724288.00000000,17729922081629812686597420333662208.00000000,0.00000000
-0.16511232,-0.19622043,9.36115074,-0.01383493,0.00000000,-0.04469746,0.19940186,0.07397461,-0.43969727,0.01111983,0.00846475,0.30500001,0.00300000,0.00700000,0.01300000,-0.98836213,-0.05371627,-0.03381870,0.13824341,-0.00674515,0.02221726,-0.00768555,-0.07654993,0.17833443,-0.09358726,-0.00884913,0.00334990,-0.03634576,0.03999563,0.01984022,-0.00714277,0.01855331,0.00772883,-0.00306154,0.06262439,0.09026057,13.93890858,0.52359879,0.00000000,0.00000000,1.50000000,0.09629400,0.00000000,1.00000000,89.63121033,30.00000000,1541405184.00000000,0.00000000,126088488780038144.00000000,123.00000000,0.05233458,0.00154775,9.82942390,-0.01142723,0.00004031,-0.04358072,0.19506337,0.06892352,-0.44880441,0.00404709,-0.01333036,0.60307425,0.14960684,-0.35244796,11.37507820,0.99985850,0.01548620,0.00657171,0.00010179,0.00453220,-0.00745137,0.04092226,-0.00033251,-0.00028147,0.01325149,22217608.00000000,-0.00000000,-732586304.00000000,4283.56494141,-3211715521053458432.00000000,283622065221664768.00000000,0.00000000,0.00000000,73.00013733,-10134229811724288.00000000,17729922081629812686597420333662208.00000000,0.00000000
0.40919140,0.22493562,9.87802410,-0.00638535,0.00106423,-0.06066084,0.19982910,0.07177734,-0.43969727,0.01111983,0.00846475,0.30500001,0.00300000,0.00700000,0.01300000,-0.98836166,-0.05371458,-0.03381732,0.13824768,-0.00684326,0.02244592,-0.00780665,-0.07588011,0.17683887,-0.09365743,-0.00884913,0.00334990,-0.03634576,0.03999563,0.01984022,-0.00714277,0.01855331,0.00772883,-0.00306154,0.06278590,0.08983971,13.93946457,0.52359879,0.00000000,0.00000000,1.50000000,0.09758700,0.00000000,1.00000000,89.63878632,30.00000000,1541405184.00000000,0.00000000,126088488780038144.00000000,123.00000000,0.05258995,0.00132757,9.82211781,-0.01087809,0.00055170,-0.04296347,0.19551079,0.06945454,-0.44794992,0.00410596,-0.01346755,0.60312265,0.14854315,-0.35007775,11.37587929,0.99986047,0.01538106,0.00652459,0.00010037,0.00456824,-0.00752619,0.04146282,-0.00038346,-0.00031410,0.01343057,22217608.00000000,-0.00000000,-732586304.00000000,4283.56494141,-3211715521053458432.00000000,283622065221664768.00000000,0.00000000,0.00000000,73.00013733,-10134229811724288.00000000,17729922081629812686597420333662208.00000000,0.00000000
0.33501050,0.40440553,10.41164780,-0.00744958,0.00106423,-0.10110139,0.19982910,0.07177734,-0.43969727,0.01111983,0.00846475,0.30500001,0.00300000,0.00700000,0.01300000,-0.98836142,-0.05371385,-0.03381669,0.13824987,-0.00689680,0.02257072,-0.00787308,-0.07551218,0.17601947,-0.09370039,-0.00884913,0.00334990,-0.03634576,0.03999563,0.01984022,-0.00714277,0.01855331,0.00772883,-0.00306154,0.06294401,0.08946362,13.93977451,0.52359879,0.00000000,0.00000000,1.50000000,0.09829600,0.00000000,1.00000000,89.64300537,30.00000000,1541405184.00000000,0.00000000,126088488780038144.00000000,123.00000000,0.05373605,0.00186070,9.81576920,-0.01036984,0.00101243,-0.04251376,0.19593596,0.06994944,-0.44713664,0.00413808,-0.01354243,0.60314924,0.14795837,-0.34877852,11.37632847,0.99986148,0.01532341,0.00649868,0.00009960,0.00458791,-0.00756711,0.04175926,-0.00041144,-0.00033201,0.01352876,22217608.00000000,-0.00000000,-732586304.00000000,4283.56494141,-3211715521053458432.00000000,283622065221664768.00000000,0.00000000,0.00000000,73.00013733,-10134229811724288.00000000,17729922081629812686597420333662208.00000000,0.00000000
0.40919140,0.52883798,10.34225273,-0.00000000,0.00106423,-0.12770702,0.19982910,0.07177734,-0.43969727,0.01111983,0.00846475,0.30500001,0.00300000,0.00700000,0.01300000,-0.98836106,-0.05371311,-0.03381598,0.13825288,-0.00697179,0.02274558,-0.00796685,-0.07499054,0.17486560,-0.09376486,-0.00884913,0.00334990,-0.03634576,0.03999563,0.01984022,-0.00714277,0.01855331,0.00772883,-0.00306154,0.06309172,0.08913300,13.94021034,0.52359879,0.00000000,0.00000000,1.50000000,0.09929600,0.00000000,1.00000000,89.64894104,30.00000000,1541405184.00000000,0.00000000,126088488780038144.00000000,123.00000000,0.05615870,0.00398549,9.81186676,-0.00988788,0.00142655,-0.04236528,0.19633968,0.07040729,-0.44636393,0.00418307,-0.01364735,0.60318679,0.14712802,-0.34694797,11.37697124,0.99986297,0.01524219,0.00646189,0.00009851,0.00461551,-0.00762464,0.04217743,-0.00045098,-0.00035732,0.01366726,22217608.00000000,-0.00000000,-732586304.00000000,4283.56494141,-3211715521053458432.00000000,283622065221664768.00000000,0.00000000,0.00000000,73.00013733,-10134229811724288.00000000,17729922081629812686597420333662208.00000000,0.00000000
-0.44747829,0.34936810,10.32550240,-0.00212845,-0.01277070,-0.09578026,0.19818115,0.07025146,-0.44189453,0.01111983,0.00846475,0.30500001,0.00300000,0.00700000,0.01300000,-0.98836058,-0.05371246,-0.03381524,0.13825689,-0.00706780,0.02296959,-0.00808810,-0.07431196,0.17337888,-0.09384956,-0.00884913,0.00334990,-0.03634576,0.03999563,0.01984022,-0.00714277,0.01855331,0.00772883,-0.00306154,0.06321854,0.08885557,13.94076443,0.52359879,0.00000000,0.00000000,1.50000000,0.10058800,0.00000000,1.00000000,89.65649414,30.00000000,1541405184.00000000,0.00000000,126088488780038144.00000000,123.00000000,0.05885520,0.00788618,9.81059456,-0.00942115,0.00177993,-0.04256920,0.19671953,0.07082564,-0.44563529,0.00424068,-0.01378175,0.60323524,0.14604566,-0.34458780,11.37780476,0.99986488,0.01513747,0.00641394,0.00009710,0.00465093,-0.00769865,0.04271781,-0.00050219,-0.00039010,0.01384620,22217608.00000000,-0.00000000,-732586304.00000000,4283.56494141,-3211715521053458432.00000000,283622065221664768.00000000,0.00000000,0.00000000,73.00013733,-10134229811724288.00000000,17729922081629812686597420333662208.00000000,0.00000000
-0.78727466,0.03828691,10.24174976,-0.00957803,-0.01170648,-0.07768843,0.19818115,0.07025146,-0.44189453,0.01111983,0.00846475,0.30500001,0.00300000,0.00700000,0.01300000,-0.98939168,0.00077932,0.00059847,0.14526932,-0.00011077,-0.00003211,-0.00014644,-0.00172056,-0.00046770,-0.00167123,-0.00884913,0.00334990,-0.03634576,0.03999562,0.01984022,-0.00714301,0.01855331,0.00772883,-0.00306154,0.06331736,0.08865214,13.94106007,0.52359879,0.00000000,0.00000000,1.50000000,0.10129600,0.00000000,1.00000000,89.66052246,30.00000000,1541405184.00000000,0.00000000,126088488780038144.00000000,123.00000000,0.05979517,0.01309496,9.81199837,-0.00897467,0.00204679,-0.04305275,0.19707166,0.07120010,-0.44495657,0.00006646,0.00001927,0.60005856,0.00786810,-0.00682195,11.16827965,0.99999988,0.00030542,0.00035225,0.00000011,0.00465145,-0.00769849,0.04297343,-0.00050146,-0.00038940,0.01394906,22217608.00000000,-0.00000000,-732586304.00000000,4283.56494141,-3211715521053458432.00000000,283622065221664768.00000000,0.00000000,0.00000000,73.00013733,-10134229811724288.00000000,17729922081629812686597420333662208.00000000,0.00000000
-0.94999403,-0.31347412,9.77752113,-0.01915605,-0.00319268,-0.09152336,0.19818115,0.07025146,-0.44189453,0.01111983,0.00846475,0.30500001,0.00300000,0.00700000,0.01300000,-0.98939115,0.00077926,0.00059904,0.14527299,-0.00011249,-0.00003257,-0.00014809,-0.00171368,-0.00045716,-0.00164996,-0.00884913,0.00334990,-0.03634576,0.03999562,0.01984022,-0.00714301,0.01855331,0.00772883,-0.00306154,0.06339542,0.08854210,13.94145870,0.52359879,0.00000000,0.00000000,1.50000000,0.10229600,0.00000000,1.00000000,89.66595459,30.00000000,1541405184.00000000,0.00000000,126088488780038144.00000000,123.00000000,0.05742185,0.01847805,9.81561947,-0.00857389,0.00223210,-0.04376397,0.19739515,0.07153063,-0.44432923,0.00006749,0.00001954,0.60005921,0.00785846,-0.00684020,11.16859531,0.99999988,0.00030622,0.00035181,0.00000011,0.00465234,-0.00769826,0.04333445,-0.00050043,-0.00038841,0.01409433,22217608.00000000,-0.00000000,-732586304.00000000,4283.56494141,-3211715521053458432.00000000,283622065221664768.00000000,0.00000000,0.00000000,73.00013733,-10134229811724288.00000000,17729922081629812686597420333662208.00000000,0.00000000
-0.21297096,-0.77531004,8.43269253,-0.01702760,0.01383493,-0.10110139,0.19836426,0.07269287,-0.44604492,0.01111983,0.00846475,0.30500001,0.00300000,0.00700000,0.01300000,-0.98939037,0.00077896,0.00059973,0.14527832,-0.00011470,-0.00003314,-0.00015018,-0.00171033,-0.00043678,-0.00161879,-0.00884913,0.00334990,-0.03634576,0.03999562,0.01984022,-0.00714301,0.01855331,0.00772883,-0.00306154,0.06347031,0.08852652,13.94195366,0.52359879,0.00000000,0.00000000,1.50000000,0.10358800,0.00000000,1.00000000,89.67269135,30.00000000,1541405184.00000000,0.00000000,126088488780038144.00000000,123.00000000,0.05182942,0.02226042,9.81849098,-0.00823847,0.00237852,-0.04470459,0.19769098,0.07182368,-0.44375679,0.00006882,0.00001988,0.60006011,0.00785596,-0.00687598,11.16899490,0.99999988,0.00030782,0.00035169,0.00000011,0.00465349,-0.00769796,0.04380087,-0.00049909,-0.00038713,0.01428203,22217608.00000000,-0.00000000,-732586304.00000000,4283.56494141,-3211715521053458432.00000000,283622065221664768.00000000,0.00000000,0.00000000,73.00013733,-10134229811724288.00000000,17729922081629812686597420333662208.00000000,0.00000000
-0.19861336,-0.35176101,8.78445339,-0.01596338,0.01915605,-0.11387209,0.19836426,0.07269287,-0.44604492,0.01111983,0.00846475,0.30500001,0.00300000,0.00700000,0.01300000,-0.98938990,0.00077869,0.00060006,0.14528164,-0.00011591,-0.00003344,-0.00015132,-0.00171364,-0.00042340,-0.00160272,-0.00884913,0.00334990,-0.03634576,0.03999562,0.01984022,-0.00714301,0.01855331,0.00772883,-0.00306154,0.06355701,0.08858225,13.94222355,0.52359879,0.00000000,0.00000000,1.50000000,0.10429600,0.00000000,1.00000000,89.67636871,30.00000000,1541405184.00000000,0.00000000,126088488780038144.00000000,123.00000000,0.04397568,0.02316556,9.81707096,-0.00797184,0.00253435,-0.04585439,0.19795993,0.07208775,-0.44324684,0.00006955,0.00002006,0.60006052,0.00786386,-0.00689957,11.16921616,0.99999988,0.00030887,0.00035203,0.00000011,0.00465412,-0.00769780,0.04405646,-0.00049836,-0.00038643,0.01438489,22217608.00000000,-0.00000000,-732586304.00000000,4283.56494141,-3211715521053458432.00000000,283622065221664768.00000000,0.00000000,0.00000000,73.00013733,-10134229811724288.00000000,17729922081629812686597420333662208.00000000,0.00000000
1.44533098,0.05503744,9.59565830,-0.02022028,0.00212845,-0.09365182,0.19836426,0.07269287,-0.44604492,0.01111983,0.00846475,0.30500001,0.00300000,0.00700000,0.01300000,-0.98938912,0.00077821,0.00060046,0.14528699,-0.00011764,-0.00003384,-0.00015290,-0.00172607,-0.00040362,-0.00158561,-0.00884913,0.00334990,-0.03634576,0.03999562,0.01984022,-0.00714301,0.01855331,0.00772883,-0.00306154,0.06367830,0.08868722,13.94261360,0.52359879,0.00000000,0.00000000,1.50000000,0.10529700,0.00000000,1.00000000,89.68168640,30.00000000,1541405184.00000000,0.00000000,126088488780038144.00000000,123.00000000,0.03630606,0.02178600,9.81147671,-0.00778286,0.00270840,-0.04715898,0.19820301,0.07232697,-0.44280064,0.00007058,0.00002030,0.60006118,0.00788900,-0.00693452,11.16954136,0.99999988,0.00031042,0.00035315,0.00000011,0.00465502,-0.00769759,0.04441781,-0.00049733,-0.00038543,0.01453032,22217608.00000000,-0.00000000,-732586304.00000000,4283.56494141,-3211715521053458432.00000000,283622065221664768.00000000,0.00000000,0.00000000,73.00013733,-10134229811724288.00000000,17729922081629812686597420333662208.00000000,0.00000000
