accel_x,accel_y,accel_z,gyro_yaw,gyro_pitch,gyro_roll,mag_x,mag_y,mag_z,gps_pos_north,gps_pos_west,gps_pos_up,gps_vel_north,gps_vel_west,gps_vel_up,state_q_vec_w,state_q_vec_x,state_q_vec_y,state_q_vec_z,state_pos_north,state_pos_west,state_pos_up,state_vel_north,state_vel_west,state_vel_up,gyro_bias_yaw,gyro_bias_pitch,gyro_bias_roll,accel_bias_x,accel_bias_y,accel_bias_z,mag_bias_x,mag_bias_y,mag_bias_z,gimbal_yaw_raw,gimbal_pitch_raw,thrust_N,roll_rad_sec_squared,target_pos_north,target_pos_west,target_pos_up,elapsed_time,GND_flag,flight_armed,thrust_perc,diffy_perc,rtk_status,gps_hor_prec,gps_ver_prec,gps_sat_count,filtered_accel_x,filtered_accel_y,filtered_accel_z,filtered_gyro_x,filtered_gyro_y,filtered_gyro_z,filtered_mag_x,filtered_mag_y,filtered_mag_z,velocity_target_x,velocity_target_y,velocity_target_z,accel_target_x,accel_target_y,accel_target_z,attitude_target[0],attitude_target[1],attitude_target[2],attitude_target[3],velocity_integrator_x,velocity_integrator_y,velocity_integrator_z,attitude_integrator_x,attitude_integrator_y,attitude_integrator_z,posCovNN,posCovNE,posCovND,posCovEE,posCovED,posCovDD,velCovNN,velCovNE,velCovND,velCovEE,velCovED,velCovDD
0.10528901,-0.02153639,9.80862904,-0.01064225,0.00212845,-0.04256901,0.19549561,0.05502319,-0.45068359,0.00000000,0.00000000,0.31000000,0.00000000,0.00000000,0.00000000,0.99905705,-0.00572637,-0.00430047,-0.04282267,0.00091190,-0.00135318,0.00001048,-0.25576311,0.30694881,-0.00616123,-0.00865472,0.00105210,-0.04941371,-0.01145842,0.08587170,-0.00516194,-0.00037561,0.00991841,-0.00089759,0.00000000,0.00000000,0.00000000,0.00000000,0.00000000,0.00000000,0.00000000,0.00059200,0.00000000,1.00000000,0.00000000,0.00000000,-2071988480.00000000,0.00000000,-0.00000000,21.00000000,0.99891013,0.99875563,1.01072955,0.99876887,0.99878448,0.99873000,0.99902004,0.99884886,0.99823290,-0.00054714,0.00081191,-0.00000419,0.45943904,-0.55109954,9.81505108,0.99933428,0.02803344,0.02333972,0.00065473,0.00005030,-0.00005310,0.00000544,0.00001938,0.00001706,0.00002573,22217608.00000000,-0.00000000,-732586304.00000000,4283.56494141,-3211715521053458432.00000000,283622065221664768.00000000,0.00000000,0.00000000,73.00013733,-10134229811724288.00000000,17729922081629812686597420333662208.00000000,0.00000000
0.08853849,-0.02392932,9.79427147,-0.00744958,0.00106423,-0.03192675,0.19549561,0.05502319,-0.45068359,0.00000000,-0.00000000,0.31000000,0.01200000,0.00900000,0.03600000,0.99910408,-0.00482455,-0.00350890,-0.04190002,0.00090691,-0.00144090,0.00002442,-0.26097298,0.32560357,0.00354103,-0.00865472,0.00105210,-0.04941371,-0.01145842,0.08587170,-0.00516194,-0.00037561,0.00991841,-0.00089759,0.02176690,0.01503952,13.00114155,0.24021286,0.00000000,0.00000000,1.50000000,0.00231900,0.00000000,1.00000000,79.32716370,14.02128601,-2071988480.00000000,0.00000000,-0.00000000,21.00000000,0.99479884,0.99408191,1.05098748,0.99415165,0.99422055,0.99397594,0.99534160,0.99452811,0.99159986,-0.00054414,0.00086454,0.59999025,0.46893203,-0.58471048,11.11431217,0.99943316,0.02627132,0.02104545,0.00055321,0.00016014,-0.00018022,0.00062348,0.00007152,0.00006132,0.00009902,22217608.00000000,-0.00000000,-732586304.00000000,4283.56494141,-3211715521053458432.00000000,283622065221664768.00000000,0.00000000,0.00000000,73.00013733,-10134229811724288.00000000,17729922081629812686597420333662208.00000000,0.00000000
0.07657383,-0.00717880,9.79666424,-0.00744958,0.00000000,-0.03724788,0.19696045,0.05807495,-0.44927979,0.00000000,-0.00000000,0.31000000,0.01200000,0.00900000,0.03600000,0.99912632,-0.00437353,-0.00309456,-0.04144837,0.00067937,-0.00115537,0.00002088,-0.26004288,0.32632443,-0.00404621,-0.00865472,0.00105210,-0.04941371,-0.01145842,0.08587170,-0.00516194,-0.00037561,0.00991841,-0.00089759,0.04362199,0.02997549,13.00140476,0.23801717,0.00000000,0.00000000,1.50000000,0.00319400,0.00000000,1.00000000,79.32793427,13.80171680,-2071988480.00000000,0.00000000,-0.00000000,21.00000000,0.98704439,0.98534155,1.12637138,0.98550993,0.98566741,0.98508841,0.98845261,0.98643798,0.97917610,-0.00040762,0.00069322,0.59999168,0.46756017,-0.58638203,11.13132477,0.99943423,0.02630614,0.02095184,0.00055147,0.00021674,-0.00024585,0.00094060,0.00009758,0.00008330,0.00013576,22217608.00000000,-0.00000000,-732586304.00000000,4283.56494141,-3211715521053458432.00000000,283622065221664768.00000000,0.00000000,0.00000000,73.00013733,-10134229811724288.00000000,17729922081629812686597420333662208.00000000,0.00000000
0.10528901,-0.01675053,9.80384254,-0.00851380,0.00319268,-0.04044056,0.19696045,0.05807495,-0.44927979,0.00000000,-0.00000000,0.31000000,0.01200000,0.00900000,0.03600000,0.99913937,-0.00410328,-0.00284628,-0.04117769,0.00054158,-0.00098186,0.00001632,-0.25948521,0.32675615,-0.00859247,-0.00865472,0.00105210,-0.04941371,-0.01145842,0.08587170,-0.00516194,-0.00037561,0.00991841,-0.00089759,0.06546127,0.04476965,13.00154686,0.23599309,0.00000000,0.00000000,1.50000000,0.00372500,0.00000000,1.00000000,79.32834625,13.59930801,-2071988480.00000000,0.00000000,-0.00000000,21.00000000,0.97575390,0.97268212,1.23580837,0.97296810,0.97324795,0.97218680,0.97845465,0.97470039,0.96114206,-0.00032495,0.00058911,0.59999347,0.46673962,-0.58738649,11.14152431,0.99943483,0.02632706,0.02089594,0.00055044,0.00025117,-0.00028583,0.00113450,0.00011327,0.00009647,0.00015791,22217608.00000000,-0.00000000,-732586304.00000000,4283.56494141,-3211715521053458432.00000000,283622065221664768.00000000,0.00000000,0.00000000,73.00013733,-10134229811724288.00000000,17729922081629812686597420333662208.00000000,0.00000000
0.10768194,-0.01675053,9.81341457,-0.01064225,0.00425690,-0.04576168,0.19696045,0.05807495,-0.44927979,0.00000000,-0.00000000,0.31000000,0.01200000,0.00900000,0.03600000,0.99915296,-0.00381812,-0.00258431,-0.04089203,0.00039401,-0.00079535,0.00000869,-0.25889623,0.32721126,-0.01338937,-0.00865472,0.00105210,-0.04941371,-0.01145842,0.08587170,-0.00516194,-0.00037561,0.00991841,-0.00089759,0.08719870,0.05938063,13.00168037,0.23418678,0.00000000,0.00000000,1.50000000,0.00429500,0.00000000,1.00000000,79.32873535,13.41867828,-2071988480.00000000,0.00000000,-0.00000000,21.00000000,0.96072280,0.95579505,1.38191414,0.95622420,0.95667684,0.95494694,0.96511257,0.95904011,0.93707293,-0.00023641,0.00047721,0.59999651,0.46587580,-0.58845013,11.15229321,0.99943548,0.02634925,0.02083714,0.00054935,0.00028815,-0.00032886,0.00134428,0.00012997,0.00011042,0.00018152,22217608.00000000,-0.00000000,-732586304.00000000,4283.56494141,-3211715521053458432.00000000,283622065221664768.00000000,0.00000000,0.00000000,73.00013733,-10134229811724288.00000000,17729922081629812686597420333662208.00000000,0.00000000
0.09811021,-0.00957173,9.80623627,-0.00744958,0.00425690,-0.04363323,0.19488525,0.06002808,-0.44647217,0.00000000,-0.00000000,0.31000000,0.01200000,0.00900000,0.03600000,0.99918228,-0.00318624,-0.00200379,-0.04025884,0.00006147,-0.00037162,-0.00002232,-0.25758868,0.32821780,-0.02401886,-0.00865472,0.00105210,-0.04941371,-0.01145842,0.08587170,-0.00516194,-0.00037561,0.00991841,-0.00089759,0.10877243,0.07375826,13.00195026,0.23262715,0.00000000,0.00000000,1.50000000,0.00558600,0.00000000,1.00000000,79.32952881,13.26271534,-2071988480.00000000,0.00000000,-0.00000000,21.00000000,0.94202703,0.93475497,1.56405497,0.93535185,0.93603152,0.93343759,0.94848263,0.93952847,0.90707839,-0.00003688,0.00022297,0.60000890,0.46396518,-0.59081739,11.17618942,0.99943686,0.02639865,0.02070735,0.00054695,0.00037189,-0.00042671,0.00182765,0.00016705,0.00014109,0.00023419,22217608.00000000,-0.00000000,-732586304.00000000,4283.56494141,-3211715521053458432.00000000,283622065221664768.00000000,0.00000000,0.00000000,73.00013733,-10134229811724288.00000000,17729922081629812686597420333662208.00000000,0.00000000
0.09332436,-0.00957173,9.80144978,-0.00744958,0.00106423,-0.03831211,0.19488525,0.06002808,-0.44647217,0.00000000,-0.00000000,0.31000000,0.01200000,0.00900000,0.03600000,0.99919742,-0.00284814,-0.00169316,-0.03991994,-0.00012067,-0.00013853,-0.00004338,-0.25688756,0.32875511,-0.02970619,-0.00865472,0.00105210,-0.04941371,-0.01145842,0.08587170,-0.00516194,-0.00037561,0.00991841,-0.00089759,0.13009611,0.08787917,13.00208092,0.23124184,0.00000000,0.00000000,1.50000000,0.00629500,0.00000000,1.00000000,79.32990265,13.12418365,-2071988480.00000000,0.00000000,-0.00000000,21.00000000,0.92027217,0.91030699,1.77597463,0.91107231,0.91201562,0.90840274,0.92913103,0.91684037,0.87219304,0.00007240,0.00008312,0.60001737,0.46294594,-0.59209031,11.18898773,0.99943763,0.02642525,0.02063825,0.00054568,0.00041803,-0.00048073,0.00209553,0.00018721,0.00015765,0.00026287,22217608.00000000,-0.00000000,-732586304.00000000,4283.56494141,-3211715521053458432.00000000,283622065221664768.00000000,0.00000000,0.00000000,73.00013733,-10134229811724288.00000000,17729922081629812686597420333662208.00000000,0.00000000
0.08853849,-0.02392932,9.80862904,-0.00851380,0.00319268,-0.04150478,0.19488525,0.06002808,-0.44647217,0.00000000,-0.00000000,0.31000000,0.01200000,0.00900000,0.03600000,0.99921769,-0.00238558,-0.00126816,-0.03945613,-0.00037634,0.00019063,-0.00008083,-0.25592539,0.32948768,-0.03748698,-0.00865472,0.00105210,-0.04941371,-0.01145842,0.08587170,-0.00516194,-0.00037561,0.00991841,-0.00089759,0.15111198,0.10170974,13.00224590,0.23004368,0.00000000,0.00000000,1.50000000,0.00729400,0.00000000,1.00000000,79.33038330,13.00436783,-2071988480.00000000,0.00000000,-0.00000000,21.00000000,0.89633381,0.88343769,2.00903893,0.88437545,0.88560522,0.88086653,0.90784520,0.89190346,0.83384132,0.00022580,-0.00011438,0.60003233,0.46155524,-0.59384084,11.20652008,0.99943858,0.02646189,0.02054408,0.00054394,0.00048310,-0.00055713,0.00247766,0.00021520,0.00018047,0.00030283,22217608.00000000,-0.00000000,-732586304.00000000,4283.56494141,-3211715521053458432.00000000,283622065221664768.00000000,0.00000000,0.00000000,73.00013733,-10134229811724288.00000000,17729922081629812686597420333662208.00000000,0.00000000
0.08853849,-0.00717880,9.81102180,-0.00638535,0.00319268,-0.03724788,0.19647217,0.05819702,-0.44482422,0.00000000,-0.00000000,0.31000000,0.01200000,0.00900000,0.03600000,0.99924219,-0.00180637,-0.00073597,-0.03887515,-0.00070543,0.00061750,-0.00014185,-0.25471559,0.33040035,-0.04722948,-0.00865472,0.00105210,-0.04941371,-0.01145842,0.08587170,-0.00516194,-0.00037561,0.00991841,-0.00089759,0.17177105,0.11521725,13.00243855,0.22903381,0.00000000,0.00000000,1.50000000,0.00858600,0.00000000,1.00000000,79.33094788,12.90338135,-2071988480.00000000,0.00000000,-0.00000000,21.00000000,0.87085527,0.85485131,2.25703144,0.85597432,0.85751176,0.85156274,0.88519669,0.86538309,0.79305249,0.00042326,-0.00037050,0.60005677,0.45981726,-0.59604394,11.22850990,0.99943978,0.02650801,0.02042666,0.00054177,0.00056735,-0.00065642,0.00297944,0.00025073,0.00020912,0.00035375,22217608.00000000,-0.00000000,-732586304.00000000,4283.56494141,-3211715521053458432.00000000,283622065221664768.00000000,0.00000000,0.00000000,73.00013733,-10134229811724288.00000000,17729922081629812686597420333662208.00000000,0.00000000
0.10289608,-0.03828691,9.79427147,-0.00638535,0.00212845,-0.04363323,0.19647217,0.05819702,-0.44482422,0.00000000,-0.00000000,0.31000000,0.01200000,0.00900000,0.03600000,0.99925482,-0.00149951,-0.00045400,-0.03856723,-0.00088557,0.00085210,-0.00017900,-0.25407189,0.33088133,-0.05239077,-0.00865472,0.00105210,-0.04941371,-0.01145842,0.08587170,-0.00516194,-0.00037561,0.00991841,-0.00089759,0.19200520,0.12839068,13.00253296,0.22817339,0.00000000,0.00000000,1.50000000,0.00929500,0.00000000,1.00000000,79.33122253,12.81733894,-2071988480.00000000,0.00000000,-0.00000000,21.00000000,0.84404927,0.82475829,2.51798034,0.82609749,0.82795715,0.82072377,0.86136603,0.83748347,0.75015247,0.00053134,-0.00051126,0.60007161,0.45889956,-0.59721786,11.24017429,0.99944037,0.02653264,0.02036475,0.00054063,0.00061374,-0.00071118,0.00325700,0.00027003,0.00022460,0.00038147,22217608.00000000,-0.00000000,-732586304.00000000,4283.56494141,-3211715521053458432.00000000,283622065221664768.00000000,0.00000000,0.00000000,73.00013733,-10134229811724288.00000000,17729922081629812686597420333662208.00000000,0.00000000
0.08614556,-0.01435759,9.81580734,-0.00744958,0.00212845,-0.04044056,0.19647217,0.05819702,-0.44482422,0.00000000,-0.00000000,0.31000000,0.01200000,0.00900000,0.03600000,0.99927151,-0.00108297,-0.00007124,-0.03814908,-0.00113876,0.00118363,-0.00023839,-0.25319320,0.33152947,-0.05939629,-0.00865472,0.00105210,-0.04941371,-0.01145842,0.08587170,-0.00516194,-0.00037561,0.00991841,-0.00089759,0.21177621,0.14120676,13.00265694,0.22746976,0.00000000,0.00000000,1.50000000,0.01029500,0.00000000,1.00000000,79.33158875,12.74697495,-2071988480.00000000,0.00000000,-0.00000000,21.00000000,0.81587797,0.79309559,2.79217124,0.79471153,0.79690051,0.78831595,0.83632559,0.80816787,0.70509052,0.00068326,-0.00071018,0.60009539,0.45765683,-0.59882003,11.25603485,0.99944115,0.02656631,0.02028099,0.00053909,0.00067921,-0.00078867,0.00365269,0.00029689,0.00024595,0.00042016,22217608.00000000,-0.00000000,-732586304.00000000,4283.56494141,-3211715521053458432.00000000,283622065221664768.00000000,0.00000000,0.00000000,73.00013733,-10134229811724288.00000000,17729922081629812686597420333662208.00000000,0.00000000
0.08853849,-0.02153639,9.79905701,-0.00744958,0.00106423,-0.03405520,0.19421387,0.05715942,-0.44750977,0.00000000,-0.00000000,0.31000000,0.01200000,0.00900000,0.03600000,0.99929154,-0.00056678,0.00040311,-0.03763065,-0.00146447,0.00161299,-0.00032635,-0.25209641,0.33232480,-0.06807708,-0.00865472,0.00105210,-0.04941371,-0.01145842,0.08587170,-0.00516194,-0.00037561,0.00991841,-0.00089759,0.23105305,0.15364699,13.00280666,0.22687200,0.00000000,0.00000000,1.50000000,0.01158700,0.00000000,1.00000000,79.33202362,12.68719959,-2071988480.00000000,0.00000000,-0.00000000,21.00000000,0.78638202,0.75996429,3.07885766,0.76190066,0.76442325,0.75444359,0.81014252,0.77751404,0.65798491,0.00087868,-0.00096780,0.60013056,0.45611909,-0.60081589,11.27572823,0.99944216,0.02660826,0.02017756,0.00053719,0.00076391,-0.00088923,0.00417069,0.00033099,0.00027277,0.00046947,22217608.00000000,-0.00000000,-732586304.00000000,4283.56494141,-3211715521053458432.00000000,283622065221664768.00000000,0.00000000,0.00000000,73.00013733,-10134229811724288.00000000,17729922081629812686597420333662208.00000000,0.00000000
0.08135969,-0.01196466,9.80623627,-0.00851380,0.00212845,-0.04256901,0.19421387,0.05715942,-0.44750977,0.00000000,-0.00000000,0.31000000,0.01200000,0.00900000,0.03600000,0.99930173,-0.00029634,0.00065164,-0.03735889,-0.00164254,0.00184857,-0.00037777,-0.25151765,0.33273733,-0.07262456,-0.00865472,0.00105210,-0.04941371,-0.01145842,0.08587170,-0.00516194,-0.00037561,0.00991841,-0.00089759,0.24978593,0.16571565,13.00288486,0.22633214,0.00000000,0.00000000,1.50000000,0.01229500,0.00000000,1.00000000,79.33224487,12.63321400,-2071988480.00000000,0.00000000,-0.00000000,21.00000000,0.75588644,0.72576308,3.37474465,0.72803897,0.73089772,0.71950048,0.78311461,0.74587017,0.60936910,0.00098553,-0.00110914,0.60015112,0.45531619,-0.60186821,11.28606319,0.99944264,0.02663044,0.02012360,0.00053620,0.00081047,-0.00094458,0.00445648,0.00034951,0.00028725,0.00049630,22217608.00000000,-0.00000000,-732586304.00000000,4283.56494141,-3211715521053458432.00000000,283622065221664768.00000000,0.00000000,0.00000000,73.00013733,-10134229811724288.00000000,17729922081629812686597420333662208.00000000,0.00000000
0.08614556,-0.02632225,9.79905701,-0.00851380,0.00212845,-0.04044056,0.19421387,0.05715942,-0.44750977,0.00000000,-0.00000000,0.31000000,0.01200000,0.00900000,0.03600000,0.99931508,0.00006780,0.00098628,-0.03699277,-0.00189327,0.00218186,-0.00045651,-0.25073135,0.33328560,-0.07874706,-0.00865472,0.00105210,-0.04941371,-0.01145842,0.08587170,-0.00516194,-0.00037561,0.00991841,-0.00089759,0.26795810,0.17739771,13.00298882,0.22591445,0.00000000,0.00000000,1.50000000,0.01329500,0.00000000,1.00000000,79.33255005,12.59144402,-2071988480.00000000,0.00000000,-0.00000000,21.00000000,0.72487491,0.69101226,3.67525959,0.69364589,0.69684452,0.68400705,0.75565863,0.71372443,0.55999154,0.00113596,-0.00130911,0.60018265,0.45423746,-0.60329348,11.30000973,0.99944329,0.02666053,0.02005115,0.00053487,0.00087627,-0.00102299,0.00486384,0.00037534,0.00030729,0.00053384,22217608.00000000,-0.00000000,-732586304.00000000,4283.56494141,-3211715521053458432.00000000,283622065221664768.00000000,0.00000000,0.00000000,73.00013733,-10134229811724288.00000000,17729922081629812686597420333662208.00000000,0.00000000
0.09093142,-0.03350105,9.79666424,-0.00957803,0.00106423,-0.03937633,0.19329834,0.05679321,-0.45050049,0.00000000,-0.00000000,0.31000000,0.01200000,0.00900000,0.03600000,0.99933094,0.00051480,0.00139708,-0.03654303,-0.00221571,0.00261298,-0.00056788,-0.24975546,0.33394748,-0.08626196,-0.00865472,0.00105210,-0.04941371,-0.01145842,0.08587170,-0.00516194,-0.00037561,0.00991841,-0.00089759,0.28555945,0.18868044,13.00312424,0.22562455,0.00000000,0.00000000,1.50000000,0.01458600,0.00000000,1.00000000,79.33294678,12.56245422,-2071988480.00000000,0.00000000,-0.00000000,21.00000000,0.69373411,0.65609980,3.97683072,0.65912598,0.66266835,0.64837968,0.72809833,0.68145907,0.51043427,0.00132943,-0.00156779,0.60022718,0.45291412,-0.60505205,11.31717205,0.99944407,0.02669767,0.01996243,0.00053325,0.00096133,-0.00112461,0.00539559,0.00040818,0.00033250,0.00058171,22217608.00000000,-0.00000000,-732586304.00000000,4283.56494141,-3211715521053458432.00000000,283622065221664768.00000000,0.00000000,0.00000000,73.00013733,-10134229811724288.00000000,17729922081629812686597420333662208.00000000,0.00000000
0.09571729,-0.03589398,9.81820011,-0.00851380,0.00212845,-0.04469746,0.19329834,0.05679321,-0.45050049,0.00000000,-0.00000000,0.31000000,0.01200000,0.00900000,0.03600000,0.99933910,0.00074729,0.00161075,-0.03630896,-0.00239217,0.00284966,-0.00063172,-0.24924237,0.33428594,-0.09017001,-0.00865472,0.00105210,-0.04941371,-0.01145842,0.08587170,-0.00516194,-0.00037561,0.00991841,-0.00089759,0.30255929,0.19957432,13.00319767,0.22542700,0.00000000,0.00000000,1.50000000,0.01529400,0.00000000,1.00000000,79.33316040,12.54269981,-2071988480.00000000,0.00000000,-0.00000000,21.00000000,0.66263199,0.62117642,4.27798843,0.62464702,0.62853575,0.61279571,0.70056444,0.64923257,0.46093255,0.00143530,-0.00170979,0.60025269,0.45222789,-0.60597283,11.32611942,0.99944448,0.02671716,0.01991644,0.00053241,0.00100810,-0.00118055,0.00568888,0.00042604,0.00034614,0.00060780,22217608.00000000,-0.00000000,-732586304.00000000,4283.56494141,-3211715521053458432.00000000,283622065221664768.00000000,0.00000000,0.00000000,73.00013733,-10134229811724288.00000000,17729922081629812686597420333662208.00000000,0.00000000
0.09571729,-0.03589398,9.81580734,-0.00851380,0.00000000,-0.04044056,0.19329834,0.05679321,-0.45050049,0.00000000,-0.00000000,0.31000000,0.01200000,0.00900000,0.03600000,0.99934965,0.00105781,0.00189616,-0.03599608,-0.00264072,0.00318439,-0.00072711,-0.24854796,0.33472845,-0.09538933,-0.00865472,0.00105210,-0.04941371,-0.01145842,0.08587170,-0.00516194,-0.00037561,0.00991841,-0.00089759,0.31895658,0.21007207,13.00330162,0.22534388,0.00000000,0.00000000,1.50000000,0.01629400,0.00000000,1.00000000,79.33346558,12.53438759,-2071988480.00000000,0.00000000,-0.00000000,21.00000000,0.63159299,0.58626229,4.57856464,0.59023398,0.59446853,0.57727629,0.67307425,0.61706686,0.41151673,0.00158443,-0.00191063,0.60029083,0.45131248,-0.60721004,11.33810329,0.99944502,0.02674339,0.01985512,0.00053129,0.00107420,-0.00125977,0.00610629,0.00045099,0.00036505,0.00064434,22217608.00000000,-0.00000000,-732586304.00000000,4283.56494141,-3211715521053458432.00000000,283622065221664768.00000000,0.00000000,0.00000000,73.00013733,-10134229811724288.00000000,17729922081629812686597420333662208.00000000,0.00000000
0.07896676,-0.02871519,9.80862904,-0.00744958,0.00000000,-0.03724788,0.19415283,0.05819702,-0.45062256,0.00000000,-0.00000000,0.31000000,0.01200000,0.00900000,0.03600000,0.99936211,0.00143604,0.00224380,-0.03561465,-0.00296073,0.00361753,-0.00085856,-0.24768865,0.33525300,-0.10174585,-0.00865472,0.00105210,-0.04941371,-0.01145842,0.08587170,-0.00516194,-0.00037561,0.00991841,-0.00089759,0.33475220,0.22017038,13.00344086,0.22534189,0.00000000,0.00000000,1.50000000,0.01758600,0.00000000,1.00000000,79.33386993,12.53418827,-2071988480.00000000,0.00000000,-0.00000000,21.00000000,0.60065347,0.55141711,4.87804222,0.55594885,0.56052136,0.54189146,0.64567769,0.58501858,0.36227188,0.00177644,-0.00217052,0.60034341,0.45019686,-0.60872477,11.35274696,0.99944562,0.02677549,0.01978049,0.00052993,0.00115971,-0.00136246,0.00665055,0.00048280,0.00038893,0.00069105,22217608.00000000,-0.00000000,-732586304.00000000,4283.56494141,-3211715521053458432.00000000,283622065221664768.00000000,0.00000000,0.00000000,73.00013733,-10134229811724288.00000000,17729922081629812686597420333662208.00000000,0.00000000
0.07896676,-0.04067985,9.80144978,-0.00957803,0.00106423,-0.04469746,0.19415283,0.05819702,-0.45062256,0.00000000,-0.00000000,0.31000000,0.01200000,0.00900000,0.03600000,0.99936831,0.00163084,0.00242285,-0.03541801,-0.00313578,0.00385508,-0.00093292,-0.24723911,0.33551562,-0.10501909,-0.00865472,0.00105210,-0.04941371,-0.01145842,0.08587170,-0.00516194,-0.00037561,0.00991841,-0.00089759,0.34992468,0.22988719,13.00352001,0.22538957,0.00000000,0.00000000,1.50000000,0.01829400,0.00000000,1.00000000,79.33409882,12.53895664,-2071988480.00000000,0.00000000,-0.00000000,21.00000000,0.56995821,0.51682121,5.17476320,0.52197886,0.52687919,0.50683421,0.61852860,0.55326551,0.31346676,0.00188147,-0.00231305,0.60037321,0.44962370,-0.60951048,11.36031342,0.99944592,0.02679218,0.01974215,0.00052923,0.00120667,-0.00141891,0.00695020,0.00050010,0.00040185,0.00071651,22217608.00000000,-0.00000000,-732586304.00000000,4283.56494141,-3211715521053458432.00000000,283622065221664768.00000000,0.00000000,0.00000000,73.00013733,-10134229811724288.00000000,17729922081629812686597420333662208.00000000,0.00000000
0.08375262,-0.04307278,9.80384254,-0.00851380,0.00212845,-0.03937633,0.19415283,0.05819702,-0.45062256,0.00000000,-0.00000000,0.31000000,0.01200000,0.00900000,0.03600000,0.99937648,0.00188891,0.00266008,-0.03515723,-0.00338266,0.00419126,-0.00104238,-0.24663241,0.33585140,-0.10935498,-0.00865472,0.00105210,-0.04941371,-0.01145842,0.08587170,-0.00516194,-0.00037561,0.00991841,-0.00089759,0.36448228,0.23921984,13.00363541,0.22552958,0.00000000,0.00000000,1.50000000,0.01929500,0.00000000,1.00000000,79.33443451,12.55295753,-2071988480.00000000,0.00000000,-0.00000000,21.00000000,0.53974670,0.48271450,5.46647072,0.48858035,0.49380177,0.47236010,0.59183538,0.52205032,0.26547313,0.00202960,-0.00251476,0.60041696,0.44886473,-0.61055791,11.37037468,0.99944633,0.02681445,0.01969139,0.00052831,0.00127311,-0.00149890,0.00737649,0.00052435,0.00041983,0.00075224,22217608.00000000,-0.00000000,-732586304.00000000,4283.56494141,-3211715521053458432.00000000,283622065221664768.00000000,0.00000000,0.00000000,73.00013733,-10134229811724288.00000000,17729922081629812686597420333662208.00000000,0.00000000
0.09332436,-0.04307278,9.79187870,-0.00957803,0.00106423,-0.03937633,0.19647217,0.05960083,-0.44891357,0.00000000,-0.00000000,0.31000000,0.01200000,0.00900000,0.03600000,0.99938607,0.00219992,0.00294597,-0.03484259,-0.00370010,0.00462535,-0.00119030,-0.24588525,0.33623835,-0.11457936,-0.00865472,0.00105210,-0.04941371,-0.01145842,0.08587170,-0.00516194,-0.00037561,0.00991841,-0.00089759,0.37843555,0.24816675,13.00379276,0.22573929,0.00000000,0.00000000,1.50000000,0.02058600,0.00000000,1.00000000,79.33489227,12.57392883,-2071988480.00000000,0.00000000,-0.00000000,21.00000000,0.51022816,0.44930875,5.75135612,0.45595929,0.46149504,0.43868893,0.56576586,0.49156815,0.21859118,0.00222006,-0.00277521,0.60047615,0.44794846,-0.61182678,11.38255310,0.99944681,0.02684140,0.01963017,0.00052719,0.00135888,-0.00160235,0.00793037,0.00055525,0.00044257,0.00079793,22217608.00000000,-0.00000000,-732586304.00000000,4283.56494141,-3211715521053458432.00000000,283622065221664768.00000000,0.00000000,0.00000000,73.00013733,-10134229811724288.00000000,17729922081629812686597420333662208.00000000,0.00000000
0.10050315,-0.04546571,9.80862904,-0.01064225,0.00212845,-0.04469746,0.19647217,0.05960083,-0.44891357,0.00000000,-0.00000000,0.31000000,0.01200000,0.00900000,0.03600000,0.99939090,0.00235905,0.00309225,-0.03468139,-0.00387415,0.00486388,-0.00127343,-0.24549459,0.33642703,-0.11725196,-0.00865472,0.00105210,-0.04941371,-0.01145842,0.08587170,-0.00516194,-0.00037561,0.00991841,-0.00089759,0.39177483,0.25674573,13.00388432,0.22598466,0.00000000,0.00000000,1.50000000,0.02129500,0.00000000,1.00000000,79.33515930,12.59846592,-2071988480.00000000,0.00000000,-0.00000000,21.00000000,0.48150006,0.41671306,6.02862310,0.42420256,0.43004745,0.40591532,0.54039627,0.46190673,0.17295489,0.00232449,-0.00291833,0.60050935,0.44748041,-0.61248100,11.38881111,0.99944705,0.02685532,0.01959888,0.00052663,0.00140607,-0.00165932,0.00823571,0.00057213,0.00045493,0.00082290,22217608.00000000,-0.00000000,-732586304.00000000,4283.56494141,-3211715521053458432.00000000,283622065221664768.00000000,0.00000000,0.00000000,73.00013733,-10134229811724288.00000000,17729922081629812686597420333662208.00000000,0.00000000
0.09571729,-0.03589398,9.78948498,-0.00851380,0.00212845,-0.04256901,0.19647217,0.05960083,-0.44891357,0.00000000,-0.00000000,0.31000000,0.01200000,0.00900000,0.03600000,0.99939704,0.00256727,0.00328368,-0.03447016,-0.00411888,0.00520020,-0.00139406,-0.24497032,0.33665937,-0.12074853,-0.00865472,0.00105210,-0.04941371,-0.01145842,0.08587170,-0.00516194,-0.00037561,0.00991841,-0.00089759,0.40451753,0.26495624,13.00402164,0.22630543,0.00000000,0.00000000,1.50000000,0.02229400,0.00000000,1.00000000,79.33556366,12.63054276,-2071988480.00000000,0.00000000,-0.00000000,21.00000000,0.45357892,0.38495252,6.29815912,0.39331973,0.39947283,0.37404132,0.51573706,0.43307757,0.12858258,0.00247133,-0.00312012,0.60055763,0.44686756,-0.61334282,11.39704227,0.99944741,0.02687367,0.01955790,0.00052588,0.00147261,-0.00173973,0.00866806,0.00059572,0.00047210,0.00085788,22217608.00000000,-0.00000000,-732586304.00000000,4283.56494141,-3211715521053458432.00000000,283622065221664768.00000000,0.00000000,0.00000000,73.00013733,-10134229811724288.00000000,17729922081629812686597420333662208.00000000,0.00000000
0.09571729,-0.04067985,9.80144978,-0.00532113,0.00212845,-0.04044056,0.19366455,0.05929565,-0.44628906,0.00000000,-0.00000000,0.31000000,0.01200000,0.00900000,0.03600000,0.99940437,0.00281667,0.00351299,-0.03421673,-0.00443479,0.00563583,-0.00155560,-0.24432372,0.33691677,-0.12493595,-0.00865472,0.00105210,-0.04941371,-0.01145842,0.08587170,-0.00516194,-0.00037561,0.00991841,-0.00089759,0.41667894,0.27279809,13.00420761,0.22668779,0.00000000,0.00000000,1.50000000,0.02358700,0.00000000,1.00000000,79.33610535,12.66877842,-2071988480.00000000,0.00000000,-0.00000000,21.00000000,0.42648613,0.35405535,6.55978251,0.36333701,0.36979213,0.34308913,0.49180010,0.40509668,0.08550492,0.00266087,-0.00338150,0.60062224,0.44613102,-0.61438090,11.40695953,0.99944776,0.02689573,0.01950869,0.00052499,0.00155879,-0.00184403,0.00923095,0.00062597,0.00049396,0.00090283,22217608.00000000,-0.00000000,-732586304.00000000,4283.56494141,-3211715521053458432.00000000,283622065221664768.00000000,0.00000000,0.00000000,73.00013733,-10134229811724288.00000000,17729922081629812686597420333662208.00000000,0.00000000
0.09093142,-0.03828691,9.78230667,-0.01064225,0.00319268,-0.04363323,0.19366455,0.05929565,-0.44628906,0.00000000,-0.00000000,0.31000000,0.01200000,0.00900000,0.03600000,0.99940789,0.00294258,0.00362877,-0.03408855,-0.00460753,0.00587445,-0.00164555,-0.24398734,0.33703560,-0.12704971,-0.00865472,0.00105210,-0.04941371,-0.01145842,0.08587170,-0.00516194,-0.00037561,0.00991841,-0.00089759,0.42825276,0.28028777,13.00431728,0.22709663,0.00000000,0.00000000,1.50000000,0.02429500,0.00000000,1.00000000,79.33642578,12.70966339,-2071988480.00000000,0.00000000,-0.00000000,21.00000000,0.40030161,0.32409608,6.81284046,0.33433124,0.34108028,0.31313750,0.46864003,0.37803203,0.04383551,0.00276452,-0.00352467,0.60065824,0.44575939,-0.61490971,11.41199780,0.99944794,0.02690698,0.01948383,0.00052454,0.00160605,-0.00190126,0.00954008,0.00064245,0.00050583,0.00092735,22217608.00000000,-0.00000000,-732586304.00000000,4283.56494141,-3211715521053458432.00000000,283622065221664768.00000000,0.00000000,0.00000000,73.00013733,-10134229811724288.00000000,17729922081629812686597420333662208.00000000,0.00000000
0.09093142,-0.01675053,9.80623627,-0.00957803,0.00106423,-0.03831211,0.19366455,0.05929565,-0.44628906,0.00000000,-0.00000000,0.31000000,0.01200000,0.00900000,0.03600000,0.99941254,0.00310595,0.00377901,-0.03392190,-0.00485107,0.00621163,-0.00177535,-0.24353561,0.33717260,-0.12979172,-0.00865472,0.00105210,-0.04941371,-0.01145842,0.08587170,-0.00516194,-0.00037561,0.00991841,-0.00089759,0.43926007,0.28742653,13.00447941,0.22755450,0.00000000,0.00000000,1.50000000,0.02529500,0.00000000,1.00000000,79.33689880,12.75544930,-2071988480.00000000,0.00000000,-0.00000000,21.00000000,0.37512466,0.29522032,7.05641842,0.30640218,0.31344211,0.28429571,0.44634044,0.35198265,0.00373042,0.00291064,-0.00372698,0.60071015,0.44527608,-0.61560148,11.41858292,0.99944818,0.02692170,0.01945148,0.00052396,0.00167283,-0.00198221,0.00997838,0.00066559,0.00052241,0.00096182,22217608.00000000,-0.00000000,-732586304.00000000,4283.56494141,-3211715521053458432.00000000,283622065221664768.00000000,0.00000000,0.00000000,73.00013733,-10134229811724288.00000000,17729922081629812686597420333662208.00000000,0.00000000
0.12443247,-0.03110812,9.81341457,-0.00957803,0.00106423,-0.04150478,0.19427490,0.05966187,-0.44592285,0.00000000,-0.00000000,0.31000000,0.01200000,0.00900000,0.03600000,0.99941790,0.00329893,0.00395653,-0.03372458,-0.00516476,0.00664709,-0.00194709,-0.24298048,0.33731046,-0.13303041,-0.00865472,0.00105210,-0.04941371,-0.01145842,0.08587170,-0.00516194,-0.00037561,0.00991841,-0.00089759,0.44972256,0.29421920,13.00470352,0.22804336,0.00000000,0.00000000,1.50000000,0.02658600,0.00000000,1.00000000,79.33754730,12.80433655,-2071988480.00000000,0.00000000,-0.00000000,21.00000000,0.35105494,0.26756254,7.28985071,0.27963212,0.28695425,0.25665453,0.42496634,0.32702491,-0.03469231,0.00309885,-0.00398826,0.60077882,0.44470188,-0.61642456,11.42642784,0.99944842,0.02693917,0.01941306,0.00052326,0.00175909,-0.00208690,0.01054679,0.00069525,0.00054353,0.00100606,22217608.00000000,-0.00000000,-732586304.00000000,4283.56494141,-3211715521053458432.00000000,283622065221664768.00000000,0.00000000,0.00000000,73.00013733,-10134229811724288.00000000,17729922081629812686597420333662208.00000000,0.00000000
0.11486074,-0.05025157,9.79666424,-0.00957803,0.00000000,-0.04363323,0.19427490,0.05966187,-0.44592285,0.00000000,-0.00000000,0.31000000,0.01200000,0.00900000,0.03600000,0.99942058,0.00339551,0.00404538,-0.03362557,-0.00533682,0.00688629,-0.00204256,-0.24269097,0.33736649,-0.13465093,-0.00865472,0.00105210,-0.04941371,-0.01145842,0.08587170,-0.00516194,-0.00037561,0.00991841,-0.00089759,0.45964143,0.30068687,13.00483322,0.22853868,0.00000000,0.00000000,1.50000000,0.02729500,0.00000000,1.00000000,79.33792877,12.85386753,-2071988480.00000000,0.00000000,-0.00000000,21.00000000,0.32815287,0.24112236,7.51293182,0.25404915,0.26163828,0.23023814,0.40453604,0.30318201,-0.07139587,0.00320209,-0.00413177,0.60081702,0.44441402,-0.61684138,11.43038940,0.99944860,0.02694803,0.01939377,0.00052291,0.00180653,-0.00214449,0.01085966,0.00071147,0.00055505,0.00103029,22217608.00000000,-0.00000000,-732586304.00000000,4283.56494141,-3211715521053458432.00000000,283622065221664768.00000000,0.00000000,0.00000000,73.00013733,-10134229811724288.00000000,17729922081629812686597420333662208.00000000,0.00000000
0.10289608,-0.03589398,9.78469944,-0.00851380,0.00000000,-0.03831211,0.19427490,0.05966187,-0.44592285,0.00000000,-0.00000000,0.31000000,0.01200000,0.00900000,0.03600000,0.99942398,0.00351908,0.00415909,-0.03349850,-0.00557913,0.00722370,-0.00217928,-0.24230270,0.33741838,-0.13672382,-0.00865472,0.00105210,-0.04941371,-0.01145842,0.08587170,-0.00516194,-0.00037561,0.00991841,-0.00089759,0.46903938,0.30683762,13.00502682,0.22905865,0.00000000,0.00000000,1.50000000,0.02829500,0.00000000,1.00000000,79.33849335,12.90586472,-2071988480.00000000,0.00000000,-0.00000000,21.00000000,0.30637816,0.21585056,7.72574139,0.22963661,0.23747709,0.20503157,0.38503668,0.28043887,-0.10640304,0.00334748,-0.00433422,0.60087174,0.44404373,-0.61738044,11.43551254,0.99944878,0.02695949,0.01936893,0.00052246,0.00187345,-0.00222581,0.01130221,0.00073425,0.00057115,0.00106434,22217608.00000000,-0.00000000,-732586304.00000000,4283.56494141,-3211715521053458432.00000000,283622065221664768.00000000,0.00000000,0.00000000,73.00013733,-10134229811724288.00000000,17729922081629812686597420333662208.00000000,0.00000000
0.11007488,-0.03110812,9.80384254,-0.00851380,0.00319268,-0.04256901,0.19470215,0.05844116,-0.44824219,0.00000000,-0.00000000,0.31000000,0.01200000,0.00900000,0.03600000,0.99942791,0.00366315,0.00429169,-0.03334982,-0.00589156,0.00765969,-0.00235905,-0.24182509,0.33745131,-0.13914026,-0.00865472,0.00105210,-0.04941371,-0.01145842,0.08587170,-0.00516194,-0.00037561,0.00991841,-0.00089759,0.47793940,0.31267911,13.00529003,0.22958316,0.00000000,0.00000000,1.50000000,0.02958700,0.00000000,1.00000000,79.33926392,12.95831585,-2071988480.00000000,0.00000000,-0.00000000,21.00000000,0.28569511,0.19175687,7.92840576,0.20637888,0.21445818,0.18102521,0.36645856,0.25877917,-0.13974038,0.00353494,-0.00459582,0.60094362,0.44360799,-0.61801583,11.44156075,0.99944896,0.02697296,0.01933969,0.00052194,0.00195995,-0.00233100,0.01187593,0.00076351,0.00059175,0.00110813,22217608.00000000,-0.00000000,-732586304.00000000,4283.56494141,-3211715521053458432.00000000,283622065221664768.00000000,0.00000000,0.00000000,73.00013733,-10134229811724288.00000000,17729922081629812686597420333662208.00000000,0.00000000
0.07896676,-0.02153639,9.80144978,-0.00957803,0.00212845,-0.04363323,0.19470215,0.05844116,-0.44824219,0.00000000,-0.00000000,0.31000000,0.01200000,0.00900000,0.03600000,0.99942982,0.00373399,0.00435691,-0.03327640,-0.00606260,0.00789861,-0.00245840,-0.24157643,0.33745226,-0.14032820,-0.00865472,0.00105210,-0.04941371,-0.01145842,0.08587170,-0.00516194,-0.00037561,0.00991841,-0.00089759,0.48634776,0.31822911,13.00544071,0.23010275,0.00000000,0.00000000,1.50000000,0.03029500,0.00000000,1.00000000,79.33969879,13.01027489,-2071988480.00000000,0.00000000,-0.00000000,21.00000000,0.26610589,0.16887482,8.12089157,0.18428449,0.19259560,0.15821967,0.34881300,0.23820856,-0.17140183,0.00363756,-0.00473916,0.60098338,0.44339254,-0.61833328,11.44457626,0.99944901,0.02697969,0.01932520,0.00052168,0.00200739,-0.00238872,0.01219084,0.00077950,0.00060298,0.00113208,22217608.00000000,-0.00000000,-732586304.00000000,4283.56494141,-3211715521053458432.00000000,283622065221664768.00000000,0.00000000,0.00000000,73.00013733,-10134229811724288.00000000,17729922081629812686597420333662208.00000000,0.00000000
0.11725368,-0.02153639,9.80384254,-0.00744958,0.00212845,-0.03937633,0.19470215,0.05844116,-0.44824219,0.00000000,-0.00000000,0.31000000,0.01200000,0.00900000,0.03600000,0.99943215,0.00382311,0.00443900,-0.03318358,-0.00630360,0.00823570,-0.00260008,-0.24124259,0.33743039,-0.14182252,-0.00865472,0.00105210,-0.04941371,-0.01145842,0.08587170,-0.00516194,-0.00037561,0.00991841,-0.00089759,0.49428788,0.32349336,13.00566483,0.23065132,0.00000000,0.00000000,1.50000000,0.03129400,0.00000000,1.00000000,79.34035492,13.06513214,-2071988480.00000000,0.00000000,-0.00000000,21.00000000,0.24761990,0.14723745,8.30300331,0.16337997,0.17191280,0.13663571,0.33212078,0.21874799,-0.20135623,0.00378216,-0.00494142,0.60104007,0.44311887,-0.61873949,11.44843388,0.99944913,0.02698831,0.01930676,0.00052134,0.00207435,-0.00247022,0.01263611,0.00080199,0.00061872,0.00116578,22217608.00000000,-0.00000000,-732586304.00000000,4283.56494141,-3211715521053458432.00000000,283622065221664768.00000000,0.00000000,0.00000000,73.00013733,-10134229811724288.00000000,17729922081629812686597420333662208.00000000,0.00000000
0.11007488,-0.01914346,9.81102180,-0.00957803,0.00212845,-0.04895436,0.19250488,0.05770874,-0.45104980,0.00000000,-0.00000000,0.31000000,0.01200000,0.00900000,0.03600000,0.99943489,0.00392519,0.00453306,-0.03307666,-0.00661475,0.00867159,-0.00278553,-0.24083105,0.33737335,-0.14353345,-0.00865472,0.00105210,-0.04941371,-0.01145842,0.08587170,-0.00516194,-0.00037561,0.00991841,-0.00089759,0.50178093,0.32847834,13.00596714,0.23123197,0.00000000,0.00000000,1.50000000,0.03258600,0.00000000,1.00000000,79.34123230,13.12319756,-2071988480.00000000,0.00000000,-0.00000000,21.00000000,0.23026915,0.12687242,8.47463417,0.14368130,0.15242164,0.11628398,0.31638780,0.20040701,-0.22959049,0.00396885,-0.00520295,0.60111421,0.44280076,-0.61921304,11.45293903,0.99944931,0.02699833,0.01928531,0.00052096,0.00216097,-0.00257573,0.01321336,0.00083096,0.00063892,0.00120923,22217608.00000000,-0.00000000,-732586304.00000000,4283.56494141,-3211715521053458432.00000000,283622065221664768.00000000,0.00000000,0.00000000,73.00013733,-10134229811724288.00000000,17729922081629812686597420333662208.00000000,0.00000000
0.08614556,-0.02153639,9.80862904,-0.00638535,0.00212845,-0.04363323,0.19250488,0.05770874,-0.45104980,0.00000000,-0.00000000,0.31000000,0.01200000,0.00900000,0.03600000,0.99943620,0.00397440,0.00457843,-0.03302477,-0.00678535,0.00891075,-0.00288788,-0.24061607,0.33732778,-0.14435801,-0.00865472,0.00105210,-0.04941371,-0.01145842,0.08587170,-0.00516194,-0.00037561,0.00991841,-0.00089759,0.50883192,0.33319989,13.00613976,0.23183803,0.00000000,0.00000000,1.50000000,0.03329500,0.00000000,1.00000000,79.34173584,13.18380356,-2071988480.00000000,0.00000000,-0.00000000,21.00000000,0.21399343,0.10778576,8.63593578,0.12517433,0.13410926,0.09713896,0.30159521,0.18316829,-0.25613421,0.00407121,-0.00534645,0.60115516,0.44264561,-0.61944729,11.45516014,0.99944937,0.02700330,0.01927482,0.00052077,0.00220853,-0.00263368,0.01353050,0.00084682,0.00064997,0.00123303,22217608.00000000,-0.00000000,-732586304.00000000,4283.56494141,-3211715521053458432.00000000,283622065221664768.00000000,0.00000000,0.00000000,73.00013733,-10134229811724288.00000000,17729922081629812686597420333662208.00000000,0.00000000
0.09093142,-0.01675053,9.82059383,-0.00532113,0.00106423,-0.03937633,0.19250488,0.05770874,-0.45104980,0.00000000,-0.00000000,0.31000000,0.01200000,0.00900000,0.03600000,0.99943781,0.00403481,0.00463416,-0.03296055,-0.00702568,0.00924800,-0.00303325,-0.24032702,0.33724442,-0.14536974,-0.00865472,0.00105210,-0.04941371,-0.01145842,0.08587170,-0.00516194,-0.00037561,0.00991841,-0.00089759,0.51545948,0.33766371,13.00639343,0.23246989,0.00000000,0.00000000,1.50000000,0.03429500,0.00000000,1.00000000,79.34247589,13.24698830,-2071988480.00000000,0.00000000,-0.00000000,21.00000000,0.19868863,0.08995908,8.78724480,0.10782778,0.11693968,0.07917407,0.28771222,0.16699755,-0.28104097,0.00421541,-0.00554880,0.60121334,0.44245195,-0.61974329,11.45796204,0.99944943,0.02700959,0.01926167,0.00052054,0.00227563,-0.00271546,0.01397845,0.00086915,0.00066548,0.00126654,22217608.00000000,-0.00000000,-732586304.00000000,4283.56494141,-3211715521053458432.00000000,283622065221664768.00000000,0.00000000,0.00000000,73.00013733,-10134229811724288.00000000,17729922081629812686597420333662208.00000000,0.00000000
0.10050315,-0.02392932,9.80862904,-0.00851380,0.00319268,-0.04895436,0.19427490,0.05819702,-0.44989014,0.00000000,-0.00000000,0.31000000,0.01200000,0.00900000,0.03600000,0.99943966,0.00410195,0.00469613,-0.03288848,-0.00733548,0.00968321,-0.00322237,-0.23997068,0.33711356,-0.14649308,-0.00865472,0.00105210,-0.04941371,-0.01145842,0.08587170,-0.00516194,-0.00037561,0.00991841,-0.00089759,0.52168214,0.34187663,13.00673485,0.23311596,0.00000000,0.00000000,1.50000000,0.03558600,0.00000000,1.00000000,79.34347534,13.31159592,-2071988480.00000000,0.00000000,-0.00000000,21.00000000,0.18435091,0.07334877,8.92889690,0.09160470,0.10087544,0.06235536,0.27471271,0.15186204,-0.30436063,0.00440129,-0.00580993,0.60128897,0.44223177,-0.62008333,11.46117878,0.99944955,0.02701682,0.01924668,0.00052027,0.00236226,-0.00282110,0.01455768,0.00089789,0.00068541,0.00130971,22217608.00000000,-0.00000000,-732586304.00000000,4283.56494141,-3211715521053458432.00000000,283622065221664768.00000000,0.00000000,0.00000000,73.00013733,-10134229811724288.00000000,17729922081629812686597420333662208.00000000,0.00000000
0.08135969,-0.02153639,9.79427147,-0.00744958,0.00319268,-0.03724788,0.19427490,0.05819702,-0.44989014,0.00000000,-0.00000000,0.31000000,0.01200000,0.00900000,0.03600000,0.99944049,0.00413326,0.00472506,-0.03285446,-0.00750549,0.00992217,-0.00332660,-0.23978396,0.33703017,-0.14701630,-0.00865472,0.00105210,-0.04941371,-0.01145842,0.08587170,-0.00516194,-0.00037561,0.00991841,-0.00089759,0.52750802,0.34585348,13.00692654,0.23375882,0.00000000,0.00000000,1.50000000,0.03629500,0.00000000,1.00000000,79.34403229,13.37588215,-2071988480.00000000,0.00000000,-0.00000000,21.00000000,0.17098586,0.05789854,9.06107807,0.07647422,0.08589325,0.04665090,0.26258099,0.13774012,-0.32612643,0.00450329,-0.00595330,0.60133070,0.44212690,-0.62024939,11.46273994,0.99944961,0.02702037,0.01923949,0.00052014,0.00240985,-0.00287915,0.01487603,0.00091366,0.00069632,0.00133339,22217608.00000000,-0.00000000,-732586304.00000000,4283.56494141,-3211715521053458432.00000000,283622065221664768.00000000,0.00000000,0.00000000,73.00013733,-10134229811724288.00000000,17729922081629812686597420333662208.00000000,0.00000000
0.09811021,-0.03350105,9.80144978,-0.00851380,0.00212845,-0.04150478,0.19427490,0.05819702,-0.44989014,0.00000000,-0.00000000,0.31000000,0.01200000,0.00900000,0.03600000,0.99944150,0.00417014,0.00475917,-0.03281377,-0.00774502,0.01025906,-0.00347424,-0.23953219,0.33689734,-0.14763148,-0.00865472,0.00105210,-0.04941371,-0.01145842,0.08587170,-0.00516194,-0.00037561,0.00991841,-0.00089759,0.53295863,0.34960070,13.00720692,0.23439302,0.00000000,0.00000000,1.50000000,0.03729500,0.00000000,1.00000000,79.34484863,13.43930149,-2071988480.00000000,0.00000000,-0.00000000,21.00000000,0.15855512,0.04355507,9.18390369,0.06241864,0.07197480,0.03205629,0.25130484,0.12461601,-0.34636223,0.00464701,-0.00615544,0.60138971,0.44199955,-0.62045604,11.46467209,0.99944961,0.02702481,0.01923071,0.00051999,0.00247698,-0.00296105,0.01532544,0.00093587,0.00071167,0.00136676,22217608.00000000,-0.00000000,-732586304.00000000,4283.56494141,-3211715521053458432.00000000,283622065221664768.00000000,0.00000000,0.00000000,73.00013733,-10134229811724288.00000000,17729922081629812686597420333662208.00000000,0.00000000
0.10289608,-0.04307278,9.80144978,-0.01064225,0.00106423,-0.04576168,0.19567871,0.05923462,-0.44720459,0.00000000,-0.00000000,0.31000000,0.01200000,0.00900000,0.03600000,0.99944264,0.00420904,0.00479520,-0.03276995,-0.00805385,0.01069375,-0.00366566,-0.23922092,0.33670747,-0.14827897,-0.00865472,0.00105210,-0.04941371,-0.01145842,0.08587170,-0.00516194,-0.00037561,0.00991841,-0.00089759,0.53805596,0.35312670,13.00757980,0.23501939,0.00000000,0.00000000,1.50000000,0.03858600,0.00000000,1.00000000,79.34593201,13.50193787,-2071988480.00000000,0.00000000,-0.00000000,21.00000000,0.14704369,0.03025565,9.29757023,0.04941230,0.05909400,0.01854737,0.24086860,0.11246967,-0.36509609,0.00483231,-0.00641625,0.60146630,0.44185945,-0.62068957,11.46684647,0.99944973,0.02702985,0.01922097,0.00051983,0.00256365,-0.00306683,0.01590619,0.00096450,0.00073143,0.00140977,22217608.00000000,-0.00000000,-732586304.00000000,4283.56494141,-3211715521053458432.00000000,283622065221664768.00000000,0.00000000,0.00000000,73.00013733,-10134229811724288.00000000,17729922081629812686597420333662208.00000000,0.00000000
0.10050315,-0.02153639,9.79187870,-0.00744958,0.00319268,-0.04150478,0.19567871,0.05923462,-0.44720459,0.00000000,-0.00000000,0.31000000,0.01200000,0.00900000,0.03600000,0.99944311,0.00422599,0.00481094,-0.03275030,-0.00822334,0.01093240,-0.00377099,-0.23905715,0.33659413,-0.14856026,-0.00865472,0.00105210,-0.04941371,-0.01145842,0.08587170,-0.00516194,-0.00037561,0.00991841,-0.00089759,0.54281133,0.35644630,13.00779057,0.23562354,0.00000000,0.00000000,1.50000000,0.03929500,0.00000000,1.00000000,79.34654999,13.56235313,-2071988480.00000000,0.00000000,-0.00000000,21.00000000,0.13643230,0.01796536,9.40237331,0.03741566,0.04721696,0.00607977,0.23124850,0.10127030,-0.38237107,0.00493401,-0.00655944,0.60150838,0.44179535,-0.62080133,11.46787643,0.99944973,0.02703229,0.01921645,0.00051975,0.00261126,-0.00312494,0.01622527,0.00098021,0.00074227,0.00143338,22217608.00000000,-0.00000000,-732586304.00000000,4283.56494141,-3211715521053458432.00000000,283622065221664768.00000000,0.00000000,0.00000000,73.00013733,-10134229811724288.00000000,17729922081629812686597420333662208.00000000,0.00000000
0.08853849,-0.03110812,9.77991390,-0.00851380,0.00212845,-0.03937633,0.19567871,0.05923462,-0.44720459,0.00000000,-0.00000000,0.31000000,0.01200000,0.00900000,0.03600000,0.99944365,0.00424417,0.00482787,-0.03272833,-0.00846194,0.01126848,-0.00391970,-0.23883566,0.33642262,-0.14886044,-0.00865472,0.00105210,-0.04941371,-0.01145842,0.08587170,-0.00516194,-0.00037561,0.00991841,-0.00089759,0.54724693,0.35956514,13.00809479,0.23620826,0.00000000,0.00000000,1.50000000,0.04029400,0.00000000,1.00000000,79.34743500,13.62082577,-2071988480.00000000,0.00000000,-0.00000000,21.00000000,0.12666747,0.00667236,9.49865913,0.02638514,0.03630261,-0.00538170,0.22241035,0.09097701,-0.39824820,0.00507716,-0.00676109,0.60156792,0.44172141,-0.62093753,11.46911812,0.99944973,0.02703529,0.01921115,0.00051966,0.00267834,-0.00320684,0.01667508,0.00100233,0.00075752,0.00146663,22217608.00000000,-0.00000000,-732586304.00000000,4283.56494141,-3211715521053458432.00000000,283622065221664768.00000000,0.00000000,0.00000000,73.00013733,-10134229811724288.00000000,17729922081629812686597420333662208.00000000,0.00000000
0.09332436,-0.02392932,9.77034187,-0.00744958,0.00319268,-0.04576168,0.19641113,0.05862427,-0.44580078,0.00000000,-0.00000000,0.31000000,0.01200000,0.00900000,0.03600000,0.99944419,0.00426091,0.00484357,-0.03270667,-0.00877040,0.01170317,-0.00411254,-0.23855998,0.33618662,-0.14913504,-0.00865472,0.00105210,-0.04941371,-0.01145842,0.08587170,-0.00516194,-0.00037561,0.00991841,-0.00089759,0.55138427,0.36248952,13.00850201,0.23677425,0.00000000,0.00000000,1.50000000,0.04158700,0.00000000,1.00000000,79.34862518,13.67742538,-2071988480.00000000,0.00000000,-0.00000000,21.00000000,0.11770713,-0.00367034,9.58678150,0.01627592,0.02630548,-0.01588409,0.21431842,0.08154723,-0.41279030,0.00526224,-0.00702190,0.60164499,0.44164512,-0.62108815,11.47047424,0.99944979,0.02703864,0.01920556,0.00051958,0.00276516,-0.00331285,0.01725753,0.00103095,0.00077722,0.00150963,22217608.00000000,-0.00000000,-732586304.00000000,4283.56494141,-3211715521053458432.00000000,283622065221664768.00000000,0.00000000,0.00000000,73.00013733,-10134229811724288.00000000,17729922081629812686597420333662208.00000000,0.00000000
0.11486074,-0.02871519,9.78709221,-0.00638535,0.00319268,-0.03724788,0.19641113,0.05862427,-0.44580078,0.00000000,-0.00000000,0.31000000,0.01200000,0.00900000,0.03600000,0.99944443,0.00426670,0.00484906,-0.03269821,-0.00893920,0.01194110,-0.00421819,-0.23841460,0.33605051,-0.14922854,-0.00865472,0.00105210,-0.04941371,-0.01145842,0.08587170,-0.00516194,-0.00037561,0.00991841,-0.00089759,0.55523288,0.36523202,13.00872898,0.23730224,0.00000000,0.00000000,1.50000000,0.04229500,0.00000000,1.00000000,79.34928894,13.73022461,-2071988480.00000000,0.00000000,-0.00000000,21.00000000,0.10956033,-0.01311059,9.66708660,0.00705220,0.01718591,-0.02547373,0.20694239,0.07294366,-0.42605016,0.00536352,-0.00716466,0.60168731,0.44161332,-0.62115824,11.47109222,0.99944973,0.02704023,0.01920314,0.00051954,0.00281270,-0.00337091,0.01757652,0.00104662,0.00078801,0.00153317,22217608.00000000,-0.00000000,-732586304.00000000,4283.56494141,-3211715521053458432.00000000,283622065221664768.00000000,0.00000000,0.00000000,73.00013733,-10134229811724288.00000000,17729922081629812686597420333662208.00000000,0.00000000
0.09332436,-0.01675053,9.79905701,-0.00744958,0.00319268,-0.04150478,0.19641113,0.05862427,-0.44580078,0.00000000,-0.00000000,0.31000000,0.01200000,0.00900000,0.03600000,0.99944466,0.00427053,0.00485283,-0.03269060,-0.00917741,0.01227695,-0.00436748,-0.23821640,0.33584949,-0.14928779,-0.00865472,0.00105210,-0.04941371,-0.01145842,0.08587170,-0.00516194,-0.00037561,0.00991841,-0.00089759,0.55880994,0.36779889,13.00905800,0.23780638,0.00000000,0.00000000,1.50000000,0.04329500,0.00000000,1.00000000,79.35024261,13.78063774,-2071988480.00000000,0.00000000,-0.00000000,21.00000000,0.10221566,-0.02166680,9.73992538,-0.00131562,0.00891034,-0.03417809,0.20025429,0.06513340,-0.43807694,0.00550645,-0.00736617,0.60174698,0.44158092,-0.62124109,11.47180367,0.99944979,0.02704216,0.01920054,0.00051951,0.00287984,-0.00345292,0.01802715,0.00106875,0.00080324,0.00156641,22217608.00000000,-0.00000000,-732586304.00000000,4283.56494141,-3211715521053458432.00000000,283622065221664768.00000000,0.00000000,0.00000000,73.00013733,-10134229811724288.00000000,17729922081629812686597420333662208.00000000,0.00000000
0.11007488,-0.01675053,9.81580734,-0.00851380,0.00106423,-0.04576168,0.19390869,0.05801392,-0.44732666,0.00000000,-0.00000000,0.31000000,0.01200000,0.00900000,0.03600000,0.99944484,0.00427043,0.00485307,-0.03268583,-0.00948463,0.01271018,-0.00456020,-0.23796888,0.33557990,-0.14927940,-0.00865472,0.00105210,-0.04941371,-0.01145842,0.08587170,-0.00516194,-0.00037561,0.00991841,-0.00089759,0.56213200,0.37019730,13.00949287,0.23829868,0.00000000,0.00000000,1.50000000,0.04458600,0.00000000,1.00000000,79.35150909,13.82986832,-2071988480.00000000,0.00000000,-0.00000000,21.00000000,0.09560813,-0.02934543,9.80567074,-0.00886472,0.00144141,-0.04203895,0.19422150,0.05808131,-0.44892573,0.00569078,-0.00762611,0.60182410,0.44155389,-0.62132961,11.47253704,0.99944973,0.02704428,0.01919813,0.00051949,0.00296651,-0.00355880,0.01860895,0.00109732,0.00082289,0.00160932,22217608.00000000,-0.00000000,-732586304.00000000,4283.56494141,-3211715521053458432.00000000,283622065221664768.00000000,0.00000000,0.00000000,73.00013733,-10134229811724288.00000000,17729922081629812686597420333662208.00000000,0.00000000
0.09571729,-0.01435759,9.81341457,-0.00851380,0.00212845,-0.03405520,0.19390869,0.05801392,-0.44732666,0.00000000,-0.00000000,0.31000000,0.01200000,0.00900000,0.03600000,0.99944484,0.00426788,0.00485091,-0.03268572,-0.00965326,0.01294800,-0.00466600,-0.23783708,0.33542696,-0.14923292,-0.00865472,0.00105210,-0.04941371,-0.01145842,0.08587170,-0.00516194,-0.00037561,0.00991841,-0.00089759,0.56520772,0.37243986,13.00973701,0.23873879,0.00000000,0.00000000,1.50000000,0.04529500,0.00000000,1.00000000,79.35221863,13.87387848,-2071988480.00000000,0.00000000,-0.00000000,21.00000000,0.08969182,-0.03617258,9.86472034,-0.01564006,-0.00526383,-0.04909711,0.18880525,0.05174660,-0.45866001,0.00579195,-0.00776880,0.60186642,0.44154638,-0.62136930,11.47284698,0.99944973,0.02704528,0.01919728,0.00051948,0.00301411,-0.00361695,0.01892847,0.00111302,0.00083368,0.00163288,22217608.00000000,-0.00000000,-732586304.00000000,4283.56494141,-3211715521053458432.00000000,283622065221664768.00000000,0.00000000,0.00000000,73.00013733,-10134229811724288.00000000,17729922081629812686597420333662208.00000000,0.00000000
0.09571729,-0.02871519,9.81102180,-0.00744958,0.00425690,-0.03618366,0.19390869,0.05801392,-0.44732666,0.00000000,-0.00000000,0.31000000,0.01200000,0.00900000,0.03600000,0.99944478,0.00426115,0.00484499,-0.03268870,-0.00989091,0.01328320,-0.00481512,-0.23765644,0.33520523,-0.14911461,-0.00865472,0.00105210,-0.04941371,-0.01145842,0.08587170,-0.00516194,-0.00037561,0.00991841,-0.00089759,0.56805474,0.37453252,13.01008701,0.23910810,0.00000000,0.00000000,1.50000000,0.04629500,0.00000000,1.00000000,79.35324097,13.91080952,-2071988480.00000000,0.00000000,-0.00000000,21.00000000,0.08442346,-0.04221324,9.91748810,-0.02168788,-0.01124667,-0.05537770,0.18396734,0.04608668,-0.46734622,0.00593455,-0.00796992,0.60192603,0.44154501,-0.62141418,11.47316933,0.99944973,0.02704647,0.01919669,0.00051949,0.00308123,-0.00369895,0.01937909,0.00113516,0.00084891,0.00166612,22217608.00000000,-0.00000000,-732586304.00000000,4283.56494141,-3211715521053458432.00000000,283622065221664768.00000000,0.00000000,0.00000000,73.00013733,-10134229811724288.00000000,17729922081629812686597420333662208.00000000,0.00000000
0.09332436,-0.01914346,9.80144978,-0.00957803,0.00425690,-0.04044056,0.19256592,0.05801392,-0.44989014,0.00000000,-0.00000000,0.31000000,0.01200000,0.00900000,0.03600000,0.99944466,0.00424887,0.00483405,-0.03269612,-0.01019744,0.01371557,-0.00500735,-0.23742941,0.33491230,-0.14890133,-0.00865472,0.00105210,-0.04941371,-0.01145842,0.08587170,-0.00516194,-0.00037561,0.00991841,-0.00089759,0.57069117,0.37647915,13.01054668,0.23941414,0.00000000,0.00000000,1.50000000,0.04758600,0.00000000,1.00000000,79.35458374,13.94141388,-2071988480.00000000,0.00000000,-0.00000000,21.00000000,0.07975810,-0.04753603,9.96436596,-0.02705480,-0.01654681,-0.06092931,0.17967013,0.04106103,-0.47505176,0.00611846,-0.00822935,0.60200298,0.44155404,-0.62145972,11.47345066,0.99944967,0.02704778,0.01919660,0.00051951,0.00316788,-0.00380482,0.01996074,0.00116376,0.00086859,0.00170904,22217608.00000000,-0.00000000,-732586304.00000000,4283.56494141,-3211715521053458432.00000000,283622065221664768.00000000,0.00000000,0.00000000,73.00013733,-10134229811724288.00000000,17729922081629812686597420333662208.00000000,0.00000000
0.09571729,-0.02632225,9.81102180,-0.00638535,0.00425690,-0.04044056,0.19256592,0.05801392,-0.44989014,0.00000000,-0.00000000,0.31000000,0.01200000,0.00900000,0.03600000,0.99944454,0.00424041,0.00482647,-0.03270191,-0.01036545,0.01395258,-0.00511267,-0.23730785,0.33474842,-0.14875509,-0.00865472,0.00105210,-0.04941371,-0.01145842,0.08587170,-0.00516194,-0.00037561,0.00991841,-0.00089759,0.57312763,0.37828797,13.01080132,0.23966072,0.00000000,0.00000000,1.50000000,0.04829400,0.00000000,1.00000000,79.35532379,13.96607208,-2071988480.00000000,0.00000000,-0.00000000,21.00000000,0.07566006,-0.05218597,10.00570488,-0.03178218,-0.02120487,-0.06580923,0.17587683,0.03663271,-0.48184156,0.00621927,-0.00837155,0.60204506,0.44156417,-0.62147874,11.47354031,0.99944967,0.02704840,0.01919689,0.00051953,0.00321538,-0.00386287,0.02027968,0.00117946,0.00087939,0.00173259,22217608.00000000,-0.00000000,-732586304.00000000,4283.56494141,-3211715521053458432.00000000,283622065221664768.00000000,0.00000000,0.00000000,73.00013733,-10134229811724288.00000000,17729922081629812686597420333662208.00000000,0.00000000
0.09811021,-0.03110812,9.80862904,-0.00744958,0.00212845,-0.04044056,0.19256592,0.05801392,-0.44989014,0.00000000,-0.00000000,0.31000000,0.01200000,0.00900000,0.03600000,0.99944431,0.00422630,0.00481380,-0.03271222,-0.01060283,0.01428742,-0.00526133,-0.23713972,0.33451289,-0.14851217,-0.00865472,0.00105210,-0.04941371,-0.01145842,0.08587170,-0.00516194,-0.00037561,0.00991841,-0.00089759,0.57537967,0.37996450,13.01116848,0.23988725,0.00000000,0.00000000,1.50000000,0.04929500,0.00000000,1.00000000,79.35639954,13.98872471,-2071988480.00000000,0.00000000,-0.00000000,21.00000000,0.07208873,-0.05621907,10.04182243,-0.03590226,-0.02526040,-0.07005642,0.17255628,0.03276742,-0.48777172,0.00636170,-0.00857245,0.60210454,0.44158506,-0.62149853,11.47358799,0.99944961,0.02704915,0.01919772,0.00051957,0.00328255,-0.00394494,0.02073050,0.00120166,0.00089466,0.00176588,22217608.00000000,-0.00000000,-732586304.00000000,4283.56494141,-3211715521053458432.00000000,283622065221664768.00000000,0.00000000,0.00000000,73.00013733,-10134229811724288.00000000,17729922081629812686597420333662208.00000000,0.00000000
0.10050315,-0.01435759,9.80862904,-0.01064225,0.00106423,-0.03937633,0.19384766,0.05819702,-0.45117188,0.00000000,-0.00000000,0.31000000,0.01200000,0.00900000,0.03600000,0.99944395,0.00420572,0.00479529,-0.03272788,-0.01090870,0.01471888,-0.00545260,-0.23692723,0.33420515,-0.14815859,-0.00865472,0.00105210,-0.04941371,-0.01145842,0.08587170,-0.00516194,-0.00037561,0.00991841,-0.00089759,0.57746267,0.38151592,13.01164818,0.24008545,0.00000000,0.00000000,1.50000000,0.05058600,0.00000000,1.00000000,79.35779572,14.00854492,-2071988480.00000000,0.00000000,-0.00000000,21.00000000,0.06900813,-0.05967791,10.07301140,-0.03945338,-0.02875336,-0.07370555,0.16968210,0.02943120,-0.49289620,0.00654522,-0.00883133,0.60218108,0.44161955,-0.62151641,11.47355938,0.99944961,0.02704999,0.01919926,0.00051963,0.00336915,-0.00405077,0.02131172,0.00123032,0.00091439,0.00180884,22217608.00000000,-0.00000000,-732586304.00000000,4283.56494141,-3211715521053458432.00000000,283622065221664768.00000000,0.00000000,0.00000000,73.00013733,-10134229811724288.00000000,17729922081629812686597420333662208.00000000,0.00000000
0.12203954,-0.02871519,9.79666424,-0.00744958,0.00212845,-0.03831211,0.19384766,0.05819702,-0.45117188,0.00000000,-0.00000000,0.31000000,0.01200000,0.00900000,0.03600000,0.99944377,0.00419331,0.00478411,-0.03273758,-0.01107660,0.01495571,-0.00555750,-0.23681249,0.33403420,-0.14794558,-0.00865472,0.00105210,-0.04941371,-0.01145842,0.08587170,-0.00516194,-0.00037561,0.00991841,-0.00089759,0.57938606,0.38295284,13.01191330,0.24021813,0.00000000,0.00000000,1.50000000,0.05129500,0.00000000,1.00000000,79.35856628,14.02181244,-2071988480.00000000,0.00000000,-0.00000000,21.00000000,0.06641655,-0.06258772,10.09956360,-0.04247729,-0.03172278,-0.07679635,0.16722818,0.02658892,-0.49727252,0.00664596,-0.00897343,0.60222304,0.44164190,-0.62152261,11.47350216,0.99944955,0.02705039,0.01920033,0.00051966,0.00341670,-0.00410888,0.02163084,0.00124607,0.00092524,0.00183245,22217608.00000000,-0.00000000,-732586304.00000000,4283.56494141,-3211715521053458432.00000000,283622065221664768.00000000,0.00000000,0.00000000,73.00013733,-10134229811724288.00000000,17729922081629812686597420333662208.00000000,0.00000000
0.08853849,-0.01435759,9.81102180,-0.00744958,0.00319268,-0.04150478,0.19384766,0.05819702,-0.45117188,0.00000000,-0.00000000,0.31000000,0.01200000,0.00900000,0.03600000,0.99944341,0.00417450,0.00476715,-0.03275254,-0.01131325,0.01528950,-0.00570512,-0.23665304,0.33379105,-0.14762287,-0.00865472,0.00105210,-0.04941371,-0.01145842,0.08587170,-0.00516194,-0.00037561,0.00991841,-0.00089759,0.58116293,0.38428119,13.01229191,0.24033764,0.00000000,0.00000000,1.50000000,0.05229500,0.00000000,1.00000000,79.35967255,14.03376389,-2071988480.00000000,0.00000000,-0.00000000,21.00000000,0.06429891,-0.06498877,10.12181664,-0.04500818,-0.03420575,-0.07937526,0.16516562,0.02420463,-0.50095677,0.00678795,-0.00917370,0.60228205,0.44167754,-0.62152731,11.47337151,0.99944949,0.02705091,0.01920209,0.00051972,0.00348376,-0.00419083,0.02208078,0.00126830,0.00094055,0.00186575,22217608.00000000,-0.00000000,-732586304.00000000,4283.56494141,-3211715521053458432.00000000,283622065221664768.00000000,0.00000000,0.00000000,73.00013733,-10134229811724288.00000000,17729922081629812686597420333662208.00000000,0.00000000
0.08614556,-0.00717880,9.76316261,-0.00638535,0.00212845,-0.03831211,0.19561768,0.05905151,-0.44952393,0.00000000,-0.00000000,0.31000000,0.01200000,0.00900000,0.03600000,0.99944293,0.00414882,0.00474399,-0.03277321,-0.01161851,0.01572002,-0.00589513,-0.23644997,0.33347532,-0.14718264,-0.00865472,0.00105210,-0.04941371,-0.01145842,0.08587170,-0.00516194,-0.00037561,0.00991841,-0.00089759,0.58280450,0.38550749,13.01278591,0.24045658,0.00000000,0.00000000,1.50000000,0.05358600,0.00000000,1.00000000,79.36111450,14.04565811,-2071988480.00000000,0.00000000,-0.00000000,21.00000000,0.06257480,-0.06689051,10.14008141,-0.04708103,-0.03624132,-0.08148555,0.16346726,0.02224465,-0.50399929,0.00697111,-0.00943201,0.60235804,0.44172823,-0.62152982,11.47315121,0.99944943,0.02705153,0.01920466,0.00051980,0.00357031,-0.00429660,0.02266137,0.00129703,0.00096036,0.00190877,22217608.00000000,-0.00000000,-732586304.00000000,4283.56494141,-3211715521053458432.00000000,283622065221664768.00000000,0.00000000,0.00000000,73.00013733,-10134229811724288.00000000,17729922081629812686597420333662208.00000000,0.00000000
0.08375262,-0.02871519,9.72008991,-0.00425690,0.00106423,-0.03511943,0.19561768,0.05905151,-0.44952393,0.00000000,-0.00000000,0.31000000,0.01200000,0.00900000,0.03600000,0.99944270,0.00413411,0.00473071,-0.03278515,-0.01178608,0.01595633,-0.00599931,-0.23633958,0.33330110,-0.14693062,-0.00865472,0.00105210,-0.04941371,-0.01145842,0.08587170,-0.00516194,-0.00037561,0.00991841,-0.00089759,0.58431429,0.38664356,13.01305962,0.24051332,0.00000000,0.00000000,1.50000000,0.05429500,0.00000000,1.00000000,79.36190796,14.05133247,-2071988480.00000000,0.00000000,-0.00000000,21.00000000,0.06118234,-0.06832169,10.15452766,-0.04872825,-0.03786908,-0.08315259,0.16210991,0.02067872,-0.50644529,0.00707165,-0.00957380,0.60239977,0.44175804,-0.62152946,11.47300720,0.99944937,0.02705185,0.01920619,0.00051985,0.00361783,-0.00435468,0.02298014,0.00131283,0.00097125,0.00193240,22217608.00000000,-0.00000000,-732586304.00000000,4283.56494141,-3211715521053458432.00000000,283622065221664768.00000000,0.00000000,0.00000000,73.00013733,-10134229811724288.00000000,17729922081629812686597420333662208.00000000,0.00000000
0.10768194,-0.01914346,9.78948498,-0.00638535,0.00106423,-0.04044056,0.19561768,0.05905151,-0.44952393,0.00000000,-0.00000000,0.31000000,0.01200000,0.00900000,0.03600000,0.99944234,0.00411272,0.00471139,-0.03280263,-0.01202226,0.01628939,-0.00614587,-0.23618531,0.33305478,-0.14656429,-0.00865472,0.00105210,-0.04941371,-0.01145842,0.08587170,-0.00516194,-0.00037561,0.00991841,-0.00089759,0.58570009,0.38769874,13.01344967,0.24053058,0.00000000,0.00000000,1.50000000,0.05529500,0.00000000,1.00000000,79.36304474,14.05305767,-2071988480.00000000,0.00000000,-0.00000000,21.00000000,0.06011360,-0.06934910,10.16537952,-0.04997870,-0.03912241,-0.08440372,0.16106938,0.01947746,-0.50833875,0.00721336,-0.00977363,0.60245836,0.44180244,-0.62152773,11.47278023,0.99944931,0.02705231,0.01920850,0.00051992,0.00368484,-0.00443658,0.02342955,0.00133512,0.00098663,0.00196576,22217608.00000000,-0.00000000,-732586304.00000000,4283.56494141,-3211715521053458432.00000000,283622065221664768.00000000,0.00000000,0.00000000,73.00013733,-10134229811724288.00000000,17729922081629812686597420333662208.00000000,0.00000000
0.10768194,-0.07178796,9.82777214,-0.00532113,0.00000000,-0.03511943,0.19799805,0.05880737,-0.44647217,0.00000000,-0.00000000,0.31000000,0.01200000,0.00900000,0.03600000,0.99944180,0.00408451,0.00468587,-0.03282575,-0.01232692,0.01671895,-0.00633446,-0.23598774,0.33273658,-0.14608142,-0.00865472,0.00105210,-0.04941371,-0.01145842,0.08587170,-0.00516194,-0.00037561,0.00991841,-0.00089759,0.58696908,0.38868129,13.01395893,0.24051759,0.00000000,0.00000000,1.50000000,0.05658600,0.00000000,1.00000000,79.36453247,14.05175781,-2071988480.00000000,0.00000000,-0.00000000,21.00000000,0.05936753,-0.07006668,10.17306614,-0.05086319,-0.04003033,-0.08527507,0.16032340,0.01861135,-0.50971949,0.00739615,-0.01003137,0.60253376,0.44186231,-0.62152457,11.47246361,0.99944925,0.02705291,0.01921163,0.00052002,0.00377134,-0.00454230,0.02400943,0.00136394,0.00100652,0.00200884,22217608.00000000,-0.00000000,-732586304.00000000,4283.56494141,-3211715521053458432.00000000,283622065221664768.00000000,0.00000000,0.00000000,73.00013733,-10134229811724288.00000000,17729922081629812686597420333662208.00000000,0.00000000
0.08614556,-0.11246781,9.80623627,-0.00638535,0.00319268,-0.04256901,0.19799805,0.05880737,-0.44647217,0.00000000,-0.00000000,0.31000000,0.01200000,0.00900000,0.03600000,0.99944150,0.00406882,0.00467166,-0.03283863,-0.01249416,0.01695473,-0.00643784,-0.23587976,0.33256164,-0.14581276,-0.00865472,0.00105210,-0.04941371,-0.01145842,0.08587170,-0.00516194,-0.00037561,0.00991841,-0.00089759,0.58812177,0.38959986,13.01424122,0.24044631,0.00000000,0.00000000,1.50000000,0.05729500,0.00000000,1.00000000,79.36535645,14.04463100,-2071988480.00000000,0.00000000,-0.00000000,21.00000000,0.05889235,-0.07066275,10.17794704,-0.05141198,-0.04062034,-0.08580250,0.15985255,0.01805113,-0.51062351,0.00749650,-0.01017284,0.60257518,0.44189608,-0.62152243,11.47228146,0.99944925,0.02705325,0.01921340,0.00052007,0.00381883,-0.00460034,0.02432779,0.00137978,0.00101745,0.00203252,22217608.00000000,-0.00000000,-732586304.00000000,4283.56494141,-3211715521053458432.00000000,283622065221664768.00000000,0.00000000,0.00000000,73.00013733,-10134229811724288.00000000,17729922081629812686597420333662208.00000000,0.00000000
0.07178796,-0.09811021,9.82298660,-0.00744958,0.00319268,-0.04044056,0.19799805,0.05880737,-0.44647217,0.00000000,-0.00000000,0.31000000,0.01200000,0.00900000,0.03600000,0.99944109,0.00404655,0.00465146,-0.03285691,-0.01272989,0.01728705,-0.00658327,-0.23572819,0.33231473,-0.14543149,-0.00865472,0.00105210,-0.04941371,-0.01145842,0.08587170,-0.00516194,-0.00037561,0.00991841,-0.00089759,0.58916503,0.39045787,13.01464272,0.24038085,0.00000000,0.00000000,1.50000000,0.05829500,0.00000000,1.00000000,79.36652374,14.03808498,-2071988480.00000000,0.00000000,-0.00000000,21.00000000,0.05860519,-0.07128881,10.18028450,-0.05165885,-0.04091818,-0.08602822,0.15963393,0.01776815,-0.51109129,0.00763793,-0.01037223,0.60263330,0.44194481,-0.62151867,11.47201920,0.99944913,0.02705370,0.01921595,0.00052015,0.00388581,-0.00468219,0.02477663,0.00140214,0.00103290,0.00206592,22217608.00000000,-0.00000000,-732586304.00000000,4283.56494141,-3211715521053458432.00000000,283622065221664768.00000000,0.00000000,0.00000000,73.00013733,-10134229811724288.00000000,17729922081629812686597420333662208.00000000,0.00000000
0.04546571,-0.04067985,9.82777214,-0.00638535,0.00212845,-0.03511943,0.19531250,0.05807495,-0.44567871,0.00000000,-0.00000000,0.31000000,0.01200000,0.00900000,0.03600000,0.99944055,0.00401782,0.00462537,-0.03288048,-0.01303396,0.01771565,-0.00677039,-0.23553345,0.33199596,-0.14493906,-0.00865472,0.00105210,-0.04941371,-0.01145842,0.08587170,-0.00516194,-0.00037561,0.00991841,-0.00089759,0.59010756,0.39125913,13.01516247,0.24031681,0.00000000,0.00000000,1.50000000,0.05958600,0.00000000,1.00000000,79.36804199,14.03168106,-2071988480.00000000,0.00000000,-0.00000000,21.00000000,0.05843526,-0.07190415,10.18041611,-0.05163829,-0.04095355,-0.08597992,0.15963998,0.01773412,-0.51116377,0.00782038,-0.01062939,0.60270816,0.44200912,-0.62151349,11.47167969,0.99944907,0.02705428,0.01921931,0.00052025,0.00397225,-0.00478783,0.02535576,0.00143104,0.00105288,0.00210908,22217608.00000000,-0.00000000,-732586304.00000000,4283.56494141,-3211715521053458432.00000000,283622065221664768.00000000,0.00000000,0.00000000,73.00013733,-10134229811724288.00000000,17729922081629812686597420333662208.00000000,0.00000000
0.02392932,-0.01435759,9.77991390,-0.00532113,0.00106423,-0.04044056,0.19531250,0.05807495,-0.44567871,0.00000000,-0.00000000,0.31000000,0.01200000,0.00900000,0.03600000,0.99944025,0.00400216,0.00461113,-0.03289330,-0.01320064,0.01795058,-0.00687282,-0.23542699,0.33182105,-0.14467028,-0.00865472,0.00105210,-0.04941371,-0.01145842,0.08587170,-0.00516194,-0.00037561,0.00991841,-0.00089759,0.59095311,0.39201155,13.01545048,0.24020286,0.00000000,0.00000000,1.50000000,0.06029400,0.00000000,1.00000000,79.36888123,14.02028561,-2071988480.00000000,0.00000000,-0.00000000,21.00000000,0.05828606,-0.07237719,10.17861462,-0.05137740,-0.04075685,-0.08567874,0.15984292,0.01792184,-0.51087755,0.00792039,-0.01077035,0.60274911,0.44204491,-0.62151027,11.47149658,0.99944901,0.02705456,0.01922117,0.00052031,0.00401964,-0.00484576,0.02567326,0.00144690,0.00106385,0.00213276,22217608.00000000,-0.00000000,-732586304.00000000,4283.56494141,-3211715521053458432.00000000,283622065221664768.00000000,0.00000000,0.00000000,73.00013733,-10134229811724288.00000000,17729922081629812686597420333662208.00000000,0.00000000
0.00478586,0.00478586,9.77034187,-0.00638535,0.00212845,-0.04256901,0.19531250,0.05807495,-0.44567871,0.00000000,-0.00000000,0.31000000,0.01200000,0.00900000,0.03600000,0.99943984,0.00398028,0.00459121,-0.03291115,-0.01343592,0.01828216,-0.00701711,-0.23527732,0.33157429,-0.14429426,-0.00865472,0.00105210,-0.04941371,-0.01145842,0.08587170,-0.00516194,-0.00037561,0.00991841,-0.00089759,0.59170967,0.39272016,13.01585865,0.24010763,0.00000000,0.00000000,1.50000000,0.06129400,0.00000000,1.00000000,79.37007141,14.01076221,-2071988480.00000000,0.00000000,-0.00000000,21.00000000,0.05802992,-0.07260956,10.17497826,-0.05090030,-0.04035097,-0.08516254,0.16021976,0.01830732,-0.51026833,0.00806155,-0.01096930,0.60280687,0.44209653,-0.62150598,11.47124481,0.99944896,0.02705497,0.01922383,0.00052039,0.00408657,-0.00492756,0.02612153,0.00146933,0.00107937,0.00216622,22217608.00000000,-0.00000000,-732586304.00000000,4283.56494141,-3211715521053458432.00000000,283622065221664768.00000000,0.00000000,0.00000000,73.00013733,-10134229811724288.00000000,17729922081629812686597420333662208.00000000,0.00000000
0.06221624,-0.02871519,9.83016491,-0.00425690,0.00638535,-0.03299098,0.19421387,0.05703735,-0.44769287,0.00000000,-0.00000000,0.31000000,0.01200000,0.00900000,0.03600000,0.99943930,0.00395245,0.00456582,-0.03293377,-0.01373989,0.01871047,-0.00720306,-0.23508504,0.33125612,-0.14381489,-0.00865472,0.00105210,-0.04941371,-0.01145842,0.08587170,-0.00516194,-0.00037561,0.00991841,-0.00089759,0.59238392,0.39338541,13.01638794,0.24002434,0.00000000,0.00000000,1.50000000,0.06258700,0.00000000,1.00000000,79.37161255,14.00243378,-2071988480.00000000,0.00000000,-0.00000000,21.00000000,0.05763124,-0.07255859,10.16967010,-0.05022882,-0.03974950,-0.08445258,0.16074851,0.01886758,-0.50937396,0.00824393,-0.01122628,0.60288125,0.44216526,-0.62150162,11.47093296,0.99944890,0.02705551,0.01922734,0.00052049,0.00417309,-0.00503330,0.02670081,0.00149836,0.00109947,0.00220951,22217608.00000000,-0.00000000,-732586304.00000000,4283.56494141,-3211715521053458432.00000000,283622065221664768.00000000,0.00000000,0.00000000,73.00013733,-10134229811724288.00000000,17729922081629812686597420333662208.00000000,0.00000000
0.07657383,-0.08375262,9.85648727,-0.00744958,0.00744958,-0.03937633,0.19421387,0.05703735,-0.44769287,0.00000000,-0.00000000,0.31000000,0.01200000,0.00900000,0.03600000,0.99943900,0.00393752,0.00455218,-0.03294584,-0.01390625,0.01894488,-0.00730470,-0.23498029,0.33108237,-0.14355713,-0.00865472,0.00105210,-0.04941371,-0.01145842,0.08587170,-0.00516194,-0.00037561,0.00991841,-0.00089759,0.59297758,0.39400360,13.01667786,0.23987930,0.00000000,0.00000000,1.50000000,0.06329500,0.00000000,1.00000000,79.37245178,13.98792934,-2071988480.00000000,0.00000000,-0.00000000,21.00000000,0.05719144,-0.07228664,10.16298294,-0.04938384,-0.03896427,-0.08355723,0.16140585,0.01957939,-0.50823295,0.00834375,-0.01136693,0.60292190,0.44220373,-0.62149996,11.47077179,0.99944884,0.02705582,0.01922928,0.00052055,0.00422045,-0.00509118,0.02701792,0.00151427,0.00111049,0.00223323,22217608.00000000,-0.00000000,-732586304.00000000,4283.56494141,-3211715521053458432.00000000,283622065221664768.00000000,0.00000000,0.00000000,73.00013733,-10134229811724288.00000000,17729922081629812686597420333662208.00000000,0.00000000
0.08853849,-0.07896676,9.78230667,-0.00744958,0.00532113,-0.04256901,0.19421387,0.05703735,-0.44769287,0.00000000,-0.00000000,0.31000000,0.01200000,0.00900000,0.03600000,0.99943864,0.00391696,0.00453340,-0.03296235,-0.01414085,0.01927539,-0.00744776,-0.23483327,0.33083811,-0.14320129,-0.00865472,0.00105210,-0.04941371,-0.01145842,0.08587170,-0.00516194,-0.00037561,0.00991841,-0.00089759,0.59349746,0.39457002,13.01708984,0.23973624,0.00000000,0.00000000,1.50000000,0.06429400,0.00000000,1.00000000,79.37365723,13.97362423,-2071988480.00000000,0.00000000,-0.00000000,21.00000000,0.05681150,-0.07190354,10.15508366,-0.04839127,-0.03801712,-0.08250991,0.16217250,0.02042208,-0.50687915,0.00848451,-0.01156523,0.60297912,0.44225928,-0.62149888,11.47056198,0.99944878,0.02705626,0.01923204,0.00052063,0.00428727,-0.00517285,0.02746518,0.00153674,0.00112606,0.00226671,22217608.00000000,-0.00000000,-732586304.00000000,4283.56494141,-3211715521053458432.00000000,283622065221664768.00000000,0.00000000,0.00000000,73.00013733,-10134229811724288.00000000,17729922081629812686597420333662208.00000000,0.00000000
0.11964661,-0.05743037,9.81580734,-0.00638535,0.00425690,-0.03299098,0.19415283,0.05734253,-0.45013428,0.00000000,-0.00000000,0.31000000,0.01200000,0.00900000,0.03600000,0.99943817,0.00389113,0.00450977,-0.03298295,-0.01444401,0.01970242,-0.00763220,-0.23464407,0.33052358,-0.14275271,-0.00865472,0.00105210,-0.04941371,-0.01145842,0.08587170,-0.00516194,-0.00037561,0.00991841,-0.00089759,0.59395063,0.39508349,13.01762295,0.23960529,0.00000000,0.00000000,1.50000000,0.06558600,0.00000000,1.00000000,79.37521362,13.96052933,-2071988480.00000000,0.00000000,-0.00000000,21.00000000,0.05660286,-0.07145759,10.14606667,-0.04727402,-0.03693482,-0.08133533,0.16303350,0.02137762,-0.50534546,0.00866641,-0.01182145,0.60305291,0.44233254,-0.62149948,11.47031593,0.99944866,0.02705687,0.01923564,0.00052074,0.00437367,-0.00527844,0.02804333,0.00156583,0.00114623,0.00231003,22217608.00000000,-0.00000000,-732586304.00000000,4283.56494141,-3211715521053458432.00000000,283622065221664768.00000000,0.00000000,0.00000000,73.00013733,-10134229811724288.00000000,17729922081629812686597420333662208.00000000,0.00000000
0.07418089,-0.08375262,9.87323761,-0.00638535,0.00744958,-0.03724788,0.19415283,0.05734253,-0.45013428,0.00000000,-0.00000000,0.31000000,0.01200000,0.00900000,0.03600000,0.99943793,0.00387740,0.00449722,-0.03299379,-0.01461030,0.01993664,-0.00773324,-0.23454043,0.33035153,-0.14251350,-0.00865472,0.00105210,-0.04941371,-0.01145842,0.08587170,-0.00516194,-0.00037561,0.00991841,-0.00089759,0.59434080,0.39554226,13.01791573,0.23941526,0.00000000,0.00000000,1.50000000,0.06629500,0.00000000,1.00000000,79.37606812,13.94152546,-2071988480.00000000,0.00000000,-0.00000000,21.00000000,0.05664714,-0.07103432,10.13625050,-0.04605009,-0.03573330,-0.08003798,0.16397555,0.02242948,-0.50366521,0.00876618,-0.01196198,0.60309333,0.44237295,-0.62150073,11.47019577,0.99944866,0.02705720,0.01923759,0.00052080,0.00442107,-0.00533637,0.02836051,0.00158180,0.00115731,0.00233381,22217608.00000000,-0.00000000,-732586304.00000000,4283.56494141,-3211715521053458432.00000000,283622065221664768.00000000,0.00000000,0.00000000,73.00013733,-10134229811724288.00000000,17729922081629812686597420333662208.00000000,0.00000000
0.00957173,-0.04067985,9.77991390,-0.00957803,0.00744958,-0.04044056,0.19415283,0.05734253,-0.45013428,0.00000000,-0.00000000,0.31000000,0.01200000,0.00900000,0.03600000,0.99943763,0.00385871,0.00448015,-0.03300838,-0.01484470,0.02026675,-0.00787542,-0.23439451,0.33010966,-0.14218646,-0.00865472,0.00105210,-0.04941371,-0.01145842,0.08587170,-0.00516194,-0.00037561,0.00991841,-0.00089759,0.59467685,0.39594030,13.01832676,0.23921947,0.00000000,0.00000000,1.50000000,0.06729500,0.00000000,1.00000000,79.37725830,13.92194748,-2071988480.00000000,0.00000000,-0.00000000,21.00000000,0.05681403,-0.07071505,10.12586594,-0.04474197,-0.03442125,-0.07864204,0.16498598,0.02356250,-0.50186509,0.00890682,-0.01216005,0.60315019,0.44243026,-0.62150353,11.47004890,0.99944860,0.02705767,0.01924033,0.00052089,0.00448792,-0.00541807,0.02880771,0.00160435,0.00117295,0.00236737,22217608.00000000,-0.00000000,-732586304.00000000,4283.56494141,-3211715521053458432.00000000,283622065221664768.00000000,0.00000000,0.00000000,73.00013733,-10134229811724288.00000000,17729922081629812686597420333662208.00000000,0.00000000
0.15075472,0.01675053,9.73444748,-0.00744958,0.00957803,-0.03299098,0.19439697,0.05911255,-0.45043945,0.00000000,-0.00000000,0.31000000,0.01200000,0.00900000,0.03600000,0.99943721,0.00383549,0.00445896,-0.03302629,-0.01514729,0.02069285,-0.00805860,-0.23420627,0.32979834,-0.14177826,-0.00865472,0.00105210,-0.04941371,-0.01145842,0.08587170,-0.00516194,-0.00037561,0.00991841,-0.00089759,0.59496939,0.39627054,13.01885891,0.23902869,0.00000000,0.00000000,1.50000000,0.06858700,0.00000000,1.00000000,79.37881470,13.90286922,-2071988480.00000000,0.00000000,-0.00000000,21.00000000,0.05706681,-0.07035014,10.11476898,-0.04337028,-0.03301228,-0.07716777,0.16605252,0.02476504,-0.49996746,0.00908837,-0.01241571,0.60322344,0.44250461,-0.62150890,11.46988964,0.99944848,0.02705827,0.01924382,0.00052099,0.00457427,-0.00552361,0.02938524,0.00163352,0.00119320,0.00241075,22217608.00000000,-0.00000000,-732586304.00000000,4283.56494141,-3211715521053458432.00000000,283622065221664768.00000000,0.00000000,0.00000000,73.00013733,-10134229811724288.00000000,17729922081629812686597420333662208.00000000,0.00000000
0.06221624,-0.04067985,9.85170174,-0.00744958,0.01064225,-0.03937633,0.19439697,0.05911255,-0.45043945,0.00000000,-0.00000000,0.31000000,0.01200000,0.00900000,0.03600000,0.99943697,0.00382322,0.00444780,-0.03303560,-0.01531397,0.02092754,-0.00815939,-0.23410244,0.32962742,-0.14156169,-0.00865472,0.00105210,-0.04941371,-0.01145842,0.08587170,-0.00516194,-0.00037561,0.00991841,-0.00089759,0.59522474,0.39652592,13.01915169,0.23878765,0.00000000,0.00000000,1.50000000,0.06929900,0.00000000,1.00000000,79.37966919,13.87876511,-2071988480.00000000,0.00000000,-0.00000000,21.00000000,0.05750240,-0.06976458,10.10298634,-0.04194542,-0.03152096,-0.07562209,0.16716352,0.02602826,-0.49799398,0.00918838,-0.01255653,0.60326380,0.44254532,-0.62151283,11.46982002,0.99944848,0.02705861,0.01924571,0.00052105,0.00462184,-0.00558175,0.02970343,0.00164959,0.00120437,0.00243466,22217608.00000000,-0.00000000,-732586304.00000000,4283.56494141,-3211715521053458432.00000000,283622065221664768.00000000,0.00000000,0.00000000,73.00013733,-10134229811724288.00000000,17729922081629812686597420333662208.00000000,0.00000000
0.11725368,-0.04546571,9.88280964,-0.01170648,0.01064225,-0.04044056,0.19439697,0.05911255,-0.45043945,0.00000000,-0.00000000,0.31000000,0.01200000,0.00900000,0.03600000,0.99943668,0.00380682,0.00443293,-0.03304784,-0.01554699,0.02125562,-0.00830010,-0.23395699,0.32938948,-0.14127076,-0.00865472,0.00105210,-0.04941371,-0.01145842,0.08587170,-0.00516194,-0.00037561,0.00991841,-0.00089759,0.59545100,0.39669883,13.01955891,0.23855358,0.00000000,0.00000000,1.50000000,0.07029500,0.00000000,1.00000000,79.38085175,13.85535812,-2071988480.00000000,0.00000000,-0.00000000,21.00000000,0.05803876,-0.06898801,10.09089661,-0.04048254,-0.02995965,-0.07402848,0.16830827,0.02734125,-0.49596396,0.00932819,-0.01275337,0.60332006,0.44260171,-0.62152022,11.46974850,0.99944836,0.02705910,0.01924828,0.00052113,0.00468839,-0.00566308,0.03014839,0.00167211,0.00122001,0.00246813,22217608.00000000,-0.00000000,-732586304.00000000,4283.56494141,-3211715521053458432.00000000,283622065221664768.00000000,0.00000000,0.00000000,73.00013733,-10134229811724288.00000000,17729922081629812686597420333662208.00000000,0.00000000
0.11725368,-0.02871519,9.77512741,-0.00851380,0.00851380,-0.03937633,0.19561768,0.05978394,-0.44732666,0.00000000,-0.00000000,0.31000000,0.01200000,0.00900000,0.03600000,0.99943638,0.00378655,0.00441468,-0.03306267,-0.01584879,0.02168046,-0.00848201,-0.23376817,0.32908291,-0.14090946,-0.00865472,0.00105210,-0.04941371,-0.01145842,0.08587170,-0.00516194,-0.00037561,0.00991841,-0.00089759,0.59565842,0.39678279,13.02008820,0.23834956,0.00000000,0.00000000,1.50000000,0.07158600,0.00000000,1.00000000,79.38240051,13.83495522,-2071988480.00000000,0.00000000,-0.00000000,21.00000000,0.05868433,-0.06805261,10.07863045,-0.03900043,-0.02834249,-0.07240922,0.16947889,0.02869300,-0.49389035,0.00950927,-0.01300828,0.60339278,0.44267398,-0.62153256,11.46969032,0.99944830,0.02705977,0.01925151,0.00052123,0.00477463,-0.00576847,0.03072493,0.00170131,0.00124031,0.00251152,22217608.00000000,-0.00000000,-732586304.00000000,4283.56494141,-3211715521053458432.00000000,283622065221664768.00000000,0.00000000,0.00000000,73.00013733,-10134229811724288.00000000,17729922081629812686597420333662208.00000000,0.00000000
0.11007488,-0.00478586,9.75598431,-0.01277070,0.00744958,-0.04682591,0.19561768,0.05978394,-0.44732666,0.00000000,-0.00000000,0.31000000,0.01200000,0.00900000,0.03600000,0.99943620,0.00377596,0.00440521,-0.03307023,-0.01601445,0.02191366,-0.00858178,-0.23366401,0.32891551,-0.14071997,-0.00865472,0.00105210,-0.04941371,-0.01145842,0.08587170,-0.00516194,-0.00037561,0.00991841,-0.00089759,0.59585655,0.39677402,13.02037811,0.23816092,0.00000000,0.00000000,1.50000000,0.07229500,0.00000000,1.00000000,79.38323975,13.81609154,-2071988480.00000000,0.00000000,-0.00000000,21.00000000,0.05954604,-0.06693456,10.06604671,-0.03751235,-0.02668582,-0.07078367,0.17066990,0.03007464,-0.49178126,0.00960867,-0.01314820,0.60343271,0.44271278,-0.62154096,11.46967793,0.99944824,0.02706016,0.01925321,0.00052128,0.00482198,-0.00582635,0.03104149,0.00171736,0.00125147,0.00253535,22217608.00000000,-0.00000000,-732586304.00000000,4283.56494141,-3211715521053458432.00000000,283622065221664768.00000000,0.00000000,0.00000000,73.00013733,-10134229811724288.00000000,17729922081629812686597420333662208.00000000,0.00000000
0.19861336,0.05025157,9.79187870,-0.01064225,0.00957803,-0.04044056,0.19561768,0.05978394,-0.44732666,0.00000000,-0.00000000,0.31000000,0.01200000,0.00900000,0.03600000,0.99943596,0.00376182,0.00439270,-0.03308008,-0.01624774,0.02224202,-0.00872211,-0.23351632,0.32868129,-0.14046577,-0.00865472,0.00105210,-0.04941371,-0.01145842,0.08587170,-0.00516194,-0.00037561,0.00991841,-0.00089759,0.59605747,0.39666960,13.02078533,0.23804571,0.00000000,0.00000000,1.50000000,0.07329400,0.00000000,1.00000000,79.38442993,13.80457020,-2071988480.00000000,0.00000000,-0.00000000,21.00000000,0.06074586,-0.06559181,10.05321884,-0.03603210,-0.02500272,-0.06917176,0.17187451,0.03147690,-0.48964798,0.00974864,-0.01334521,0.60348886,0.44276559,-0.62155557,11.46968842,0.99944818,0.02706077,0.01925549,0.00052136,0.00488870,-0.00590788,0.03148742,0.00173998,0.00126720,0.00256895,22217608.00000000,-0.00000000,-732586304.00000000,4283.56494141,-3211715521053458432.00000000,283622065221664768.00000000,0.00000000,0.00000000,73.00013733,-10134229811724288.00000000,17729922081629812686597420333662208.00000000,0.00000000
0.14596885,0.03350105,9.81820011,-0.01064225,0.00851380,-0.04044056,0.20129395,0.05691528,-0.44195557,0.00000000,-0.00000000,0.31000000,0.01200000,0.00900000,0.03600000,0.99943572,0.00374452,0.00437757,-0.03309179,-0.01654919,0.02266628,-0.00890319,-0.23332359,0.32838091,-0.14015359,-0.00865472,0.00105210,-0.04941371,-0.01145842,0.08587170,-0.00516194,-0.00037561,0.00991841,-0.00089759,0.59627211,0.39646715,13.02131271,0.23798734,0.00000000,0.00000000,1.50000000,0.07458600,0.00000000,1.00000000,79.38596344,13.79873371,-2071988480.00000000,0.00000000,-0.00000000,21.00000000,0.06238959,-0.06397028,10.04037476,-0.03456754,-0.02330486,-0.06757609,0.17309204,0.03288671,-0.48749685,0.00992951,-0.01359977,0.60356128,0.44283053,-0.62157857,11.46973705,0.99944812,0.02706166,0.01925823,0.00052145,0.00497496,-0.00601331,0.03206395,0.00176926,0.00128758,0.00261241,22217608.00000000,-0.00000000,-732586304.00000000,4283.56494141,-3211715521053458432.00000000,283622065221664768.00000000,0.00000000,0.00000000,73.00013733,-10134229811724288.00000000,17729922081629812686597420333662208.00000000,0.00000000
0.11486074,0.05982330,9.82059383,-0.01277070,0.00638535,-0.04789013,0.20129395,0.05691528,-0.44195557,0.00000000,-0.00000000,0.31000000,0.01200000,0.00900000,0.03600000,0.99943560,0.00373557,0.00436986,-0.03309766,-0.01671431,0.02289866,-0.00900230,-0.23321669,0.32821780,-0.13999155,-0.00865472,0.00105210,-0.04941371,-0.01145842,0.08587170,-0.00516194,-0.00037561,0.00991841,-0.00089759,0.59650934,0.39616990,13.02159977,0.23795970,0.00000000,0.00000000,1.50000000,0.07529400,0.00000000,1.00000000,79.38680267,13.79596901,-2071988480.00000000,0.00000000,-0.00000000,21.00000000,0.06432726,-0.06202410,10.02760792,-0.03312545,-0.02161040,-0.06600804,0.17432791,0.03428910,-0.48532709,0.01002859,-0.01373920,0.60360092,0.44286370,-0.62159365,11.46978378,0.99944806,0.02706220,0.01925959,0.00052149,0.00502223,-0.00607107,0.03237983,0.00178531,0.00129875,0.00263624,22217608.00000000,-0.00000000,-732586304.00000000,4283.56494141,-3211715521053458432.00000000,283622065221664768.00000000,0.00000000,0.00000000,73.00013733,-10134229811724288.00000000,17729922081629812686597420333662208.00000000,0.00000000
0.14596885,0.06939503,9.81102180,-0.01277070,0.00638535,-0.04150478,0.20129395,0.05691528,-0.44195557,0.00000000,-0.00000000,0.31000000,0.01200000,0.00900000,0.03600000,0.99943542,0.00372366,0.00435977,-0.03310518,-0.01694761,0.02322698,-0.00914222,-0.23306361,0.32798976,-0.13977517,-0.00865472,0.00105210,-0.04941371,-0.01145842,0.08587170,-0.00516194,-0.00037561,0.00991841,-0.00089759,0.59678018,0.39578420,13.02200603,0.23801675,0.00000000,0.00000000,1.50000000,0.07629500,0.00000000,1.00000000,79.38798523,13.80167484,-2071988480.00000000,0.00000000,-0.00000000,21.00000000,0.06641812,-0.05965008,10.01490498,-0.03171634,-0.01993615,-0.06448341,0.17557977,0.03567410,-0.48314574,0.01016856,-0.01393619,0.60365689,0.44290695,-0.62161946,11.46987724,0.99944806,0.02706310,0.01926131,0.00052156,0.00508905,-0.00615273,0.03282633,0.00180802,0.00131456,0.00266992,22217608.00000000,-0.00000000,-732586304.00000000,4283.56494141,-3211715521053458432.00000000,283622065221664768.00000000,0.00000000,0.00000000,73.00013733,-10134229811724288.00000000,17729922081629812686597420333662208.00000000,0.00000000
0.19622043,0.04785864,9.79427147,-0.01277070,0.00532113,-0.04256901,0.19549561,0.05789185,-0.44512939,0.00000000,-0.00000000,0.31000000,0.01200000,0.00900000,0.03600000,0.99943525,0.00370921,0.00434779,-0.03311393,-0.01724823,0.02365004,-0.00932233,-0.23286337,0.32769960,-0.13951237,-0.00865472,0.00105210,-0.04941371,-0.01145842,0.08587170,-0.00516194,-0.00037561,0.00991841,-0.00089759,0.59709477,0.39531672,13.02252865,0.23812911,0.00000000,0.00000000,1.50000000,0.07758600,0.00000000,1.00000000,79.38951111,13.81291008,-2071988480.00000000,0.00000000,-0.00000000,21.00000000,0.06876323,-0.05680739,10.00228691,-0.03034598,-0.01829031,-0.06299739,0.17683420,0.03703606,-0.48096836,0.01034894,-0.01419002,0.60372895,0.44295734,-0.62165940,11.47003365,0.99944794,0.02706446,0.01926323,0.00052164,0.00517521,-0.00625804,0.03340205,0.00183733,0.00133496,0.00271338,22217608.00000000,-0.00000000,-732586304.00000000,4283.56494141,-3211715521053458432.00000000,283622065221664768.00000000,0.00000000,0.00000000,73.00013733,-10134229811724288.00000000,17729922081629812686597420333662208.00000000,0.00000000
0.25604373,0.06221624,9.91631031,-0.01277070,0.00319268,-0.04469746,0.19549561,0.05789185,-0.44512939,0.00000000,-0.00000000,0.31000000,0.01200000,0.00900000,0.03600000,0.99943519,0.00370178,0.00434177,-0.03311822,-0.01741302,0.02388194,-0.00942101,-0.23275159,0.32754281,-0.13937695,-0.00865472,0.00105210,-0.04941371,-0.01145842,0.08587170,-0.00516194,-0.00037561,0.00991841,-0.00089759,0.59745967,0.39477769,13.02281380,0.23825108,0.00000000,0.00000000,1.50000000,0.07829400,0.00000000,1.00000000,79.39034271,13.82510757,-2071988480.00000000,0.00000000,-0.00000000,21.00000000,0.07154709,-0.05358409,9.98999786,-0.02901782,-0.01668145,-0.06155141,0.17807475,0.03837018,-0.47881100,0.01044781,-0.01432916,0.60376841,0.44298139,-0.62168533,11.47013760,0.99944794,0.02706535,0.01926410,0.00052168,0.00522246,-0.00631579,0.03371774,0.00185341,0.00134616,0.00273722,22217608.00000000,-0.00000000,-732586304.00000000,4283.56494141,-3211715521053458432.00000000,283622065221664768.00000000,0.00000000,0.00000000,73.00013733,-10134229811724288.00000000,17729922081629812686597420333662208.00000000,0.00000000
0.13879006,-0.03110812,10.35900307,-0.01383493,0.00319268,-0.04789013,0.19549561,0.05789185,-0.44512939,0.00000000,-0.00000000,0.31000000,0.01200000,0.00900000,0.03600000,0.99943507,0.00369194,0.00433402,-0.03312358,-0.01764585,0.02420959,-0.00956034,-0.23259039,0.32732460,-0.13919654,-0.00865472,0.00105210,-0.04941371,-0.01145842,0.08587170,-0.00516194,-0.00037561,0.00991841,-0.00089759,0.59788364,0.39417657,13.02321625,0.23844257,0.00000000,0.00000000,1.50000000,0.07929500,0.00000000,1.00000000,79.39151764,13.84425640,-2071988480.00000000,0.00000000,-0.00000000,21.00000000,0.07473788,-0.05018584,9.97894001,-0.02773745,-0.01512092,-0.06016136,0.17929180,0.03967221,-0.47668543,0.01058751,-0.01452576,0.60382414,0.44300947,-0.62172800,11.47031021,0.99944782,0.02706679,0.01926502,0.00052173,0.00528925,-0.00639742,0.03416400,0.00187615,0.00136199,0.00277093,22217608.00000000,-0.00000000,-732586304.00000000,4283.56494141,-3211715521053458432.00000000,283622065221664768.00000000,0.00000000,0.00000000,73.00013733,-10134229811724288.00000000,17729922081629812686597420333662208.00000000,0.00000000
0.08375262,0.14118299,10.51454353,-0.00638535,0.00319268,-0.06172506,0.19360352,0.05618286,-0.44775391,0.00000000,-0.00000000,0.31000000,0.01200000,0.00900000,0.03600000,0.99943495,0.00368008,0.00432495,-0.03312966,-0.01794608,0.02463214,-0.00973990,-0.23237811,0.32704756,-0.13897479,-0.00865472,0.00105210,-0.04941371,-0.01145842,0.08587170,-0.00516194,-0.00037561,0.00991841,-0.00089759,0.59837204,0.39352366,13.02372169,0.23876442,0.00000000,0.00000000,1.50000000,0.08058700,0.00000000,1.00000000,79.39299011,13.87644196,-2071988480.00000000,0.00000000,-0.00000000,21.00000000,0.07801811,-0.04668020,9.97035980,-0.02650159,-0.01361724,-0.05885593,0.18047540,0.04093745,-0.47460508,0.01076765,-0.01477928,0.60389596,0.44303781,-0.62179106,11.47055626,0.99944776,0.02706895,0.01926584,0.00052179,0.00537544,-0.00650278,0.03473987,0.00190553,0.00138245,0.00281444,22217608.00000000,-0.00000000,-732586304.00000000,4283.56494141,-3211715521053458432.00000000,283622065221664768.00000000,0.00000000,0.00000000,73.00013733,-10134229811724288.00000000,17729922081629812686597420333662208.00000000,0.00000000
0.00239293,0.55276734,9.66505241,0.00532113,0.00106423,-0.06278928,0.19360352,0.05618286,-0.44775391,0.00000000,-0.00000000,0.31000000,0.01200000,0.00900000,0.03600000,0.99943489,0.00367403,0.00432047,-0.03313258,-0.01811052,0.02486358,-0.00983821,-0.23225951,0.32689881,-0.13885789,-0.00865472,0.00105210,-0.04941371,-0.01145842,0.08587170,-0.00516194,-0.00037561,0.00991841,-0.00089759,0.59891111,0.39283586,13.02398777,0.23925950,0.00000000,0.00000000,1.50000000,0.08129500,0.00000000,1.00000000,79.39376831,13.92594910,-2071988480.00000000,0.00000000,-0.00000000,21.00000000,0.08107956,-0.04231155,9.96382523,-0.02528250,-0.01217860,-0.05766978,0.18161149,0.04216096,-0.47258654,0.01086631,-0.01491815,0.60393530,0.44304913,-0.62183100,11.47070122,0.99944776,0.02707035,0.01926608,0.00052183,0.00542266,-0.00656051,0.03505541,0.00192163,0.00139366,0.00283829,22217608.00000000,-0.00000000,-732586304.00000000,4283.56494141,-3211715521053458432.00000000,283622065221664768.00000000,0.00000000,0.00000000,73.00013733,-10134229811724288.00000000,17729922081629812686597420333662208.00000000,0.00000000
-0.02632225,0.63651997,8.29629612,0.01277070,-0.00212845,-0.04150478,0.19360352,0.05618286,-0.44775391,0.00000000,-0.00000000,0.31000000,0.01200000,0.00900000,0.03600000,0.99943483,0.00366613,0.00431481,-0.03313615,-0.01834261,0.02519028,-0.00997691,-0.23208916,0.32669508,-0.13870062,-0.00865472,0.00105210,-0.04941371,-0.01145842,0.08587170,-0.00516194,-0.00037561,0.00991841,-0.00089759,0.59947228,0.39212865,13.02435684,0.23992178,0.00000000,0.00000000,1.50000000,0.08229500,0.00000000,1.00000000,79.39483643,13.99217796,-2071988480.00000000,0.00000000,-0.00000000,21.00000000,0.08367921,-0.03597093,9.95594120,-0.02404097,-0.01081644,-0.05659016,0.18269350,0.04333951,-0.47063917,0.01100556,-0.01511417,0.60399073,0.44305986,-0.62189865,11.47092247,0.99944770,0.02707276,0.01926617,0.00052188,0.00548936,-0.00664205,0.03550103,0.00194438,0.00140950,0.00287197,22217608.00000000,-0.00000000,-732586304.00000000,4283.56494141,-3211715521053458432.00000000,283622065221664768.00000000,0.00000000,0.00000000,73.00013733,-10134229811724288.00000000,17729922081629812686597420333662208.00000000,0.00000000
-0.13161127,0.51687336,8.06178856,0.01702760,-0.00425690,-0.04895436,0.19348145,0.05679321,-0.44860840,0.00000000,-0.00000000,0.31000000,0.01200000,0.00900000,0.03600000,0.99943477,0.00365679,0.00430829,-0.03314012,-0.01864195,0.02561172,-0.01015573,-0.23186649,0.32644337,-0.13851422,-0.00865472,0.00105210,-0.04941371,-0.01145842,0.08587170,-0.00516194,-0.00037561,0.00991841,-0.00089759,0.60001475,0.39142090,13.02484226,0.24065585,0.00000000,0.00000000,1.50000000,0.08358600,0.00000000,1.00000000,79.39625549,14.06558514,-2071988480.00000000,0.00000000,-0.00000000,21.00000000,0.08547965,-0.02737598,9.94301224,-0.02274852,-0.00954134,-0.05558164,0.18372256,0.04447062,-0.46876693,0.01118517,-0.01536703,0.60406226,0.44306844,-0.62200600,11.47124481,0.99944758,0.02707667,0.01926599,0.00052195,0.00557544,-0.00674731,0.03607623,0.00197377,0.00142996,0.00291547,22217608.00000000,-0.00000000,-732586304.00000000,4283.56494141,-3211715521053458432.00000000,283622065221664768.00000000,0.00000000,0.00000000,73.00013733,-10134229811724288.00000000,17729922081629812686597420333662208.00000000,0.00000000
0.04546571,0.15793352,8.94238758,0.01915605,0.00319268,-0.05746816,0.19348145,0.05679321,-0.44860840,0.00000000,-0.00000000,0.31000000,0.01200000,0.00900000,0.03600000,0.99943471,0.00365217,0.00430512,-0.03314196,-0.01880602,0.02584274,-0.01025374,-0.23174344,0.32631266,-0.13842495,-0.00865472,0.00105210,-0.04941371,-0.01145842,0.08587170,-0.00516194,-0.00037561,0.00991841,-0.00089759,0.60048163,0.39073426,13.02512074,0.24145716,0.00000000,0.00000000,1.50000000,0.08429400,0.00000000,1.00000000,79.39706421,14.14571571,-2071988480.00000000,0.00000000,-0.00000000,21.00000000,0.08634076,-0.01716794,9.92465496,-0.02138771,-0.00834920,-0.05465844,0.18470144,0.04555174,-0.46697342,0.01128361,-0.01550565,0.60410154,0.44307137,-0.62207800,11.47144985,0.99944752,0.02707931,0.01926577,0.00052199,0.00562264,-0.00680504,0.03639165,0.00198990,0.00144118,0.00293932,22217608.00000000,-0.00000000,-732586304.00000000,4283.56494141,-3211715521053458432.00000000,283622065221664768.00000000,0.00000000,0.00000000,73.00013733,-10134229811724288.00000000,17729922081629812686597420333662208.00000000,0.00000000
0.47858644,-0.43790659,9.53822708,0.02022028,0.01064225,-0.05853238,0.19348145,0.05679321,-0.44860840,0.00000000,-0.00000000,0.31000000,0.01200000,0.00900000,0.03600000,0.99943471,0.00364638,0.00430119,-0.03314417,-0.01903759,0.02616888,-0.01039206,-0.23156850,0.32613859,-0.13832065,-0.00865472,0.00105210,-0.04941371,-0.01145842,0.08587170,-0.00516194,-0.00037561,0.00991841,-0.00089759,0.60082108,0.39007095,13.02554417,0.24241436,0.00000000,0.00000000,1.50000000,0.08529400,0.00000000,1.00000000,79.39830017,14.24143505,-2071988480.00000000,0.00000000,-0.00000000,21.00000000,0.08705833,-0.00684381,9.90278530,-0.01994881,-0.00721601,-0.05384187,0.18563144,0.04658148,-0.46526080,0.01142255,-0.01570133,0.60415685,0.44307318,-0.62219840,11.47178841,0.99944741,0.02708374,0.01926527,0.00052206,0.00568931,-0.00688657,0.03683714,0.00201268,0.00145704,0.00297301,22217608.00000000,-0.00000000,-732586304.00000000,4283.56494141,-3211715521053458432.00000000,283622065221664768.00000000,0.00000000,0.00000000,73.00013733,-10134229811724288.00000000,17729922081629812686597420333662208.00000000,0.00000000
0.56233907,-0.90692127,9.77273464,0.02234873,0.01064225,-0.06066084,0.19451904,0.05813599,-0.44726562,0.00000000,-0.00000000,0.31000000,0.01200000,0.00900000,0.03600000,0.99943465,0.00363990,0.00429677,-0.03314656,-0.01933648,0.02658998,-0.01057063,-0.23133978,0.32592452,-0.13821682,-0.00865472,0.00105210,-0.04941371,-0.01145842,0.08587170,-0.00516194,-0.00037561,0.00991841,-0.00089759,0.60098183,0.38942242,13.02613831,0.24350153,0.00000000,0.00000000,1.50000000,0.08658600,0.00000000,1.00000000,79.40003204,14.35015297,-2071988480.00000000,0.00000000,-0.00000000,21.00000000,0.08889118,0.00135899,9.87880611,-0.01843129,-0.00612162,-0.05312230,0.18651259,0.04756229,-0.46362913,0.01160189,-0.01595399,0.60422826,0.44307044,-0.62237322,11.47229195,0.99944723,0.02709015,0.01926429,0.00052216,0.00577542,-0.00699192,0.03741268,0.00204213,0.00147753,0.00301655,22217608.00000000,-0.00000000,-732586304.00000000,4283.56494141,-3211715521053458432.00000000,283622065221664768.00000000,0.00000000,0.00000000,73.00013733,-10134229811724288.00000000,17729922081629812686597420333662208.00000000,0.00000000
0.62694824,-0.89495659,10.46907806,0.02022028,0.00319268,-0.04469746,0.19451904,0.05813599,-0.44726562,0.00000000,-0.00000000,0.31000000,0.01200000,0.00900000,0.03600000,0.99943465,0.00363693,0.00429471,-0.03314763,-0.01950018,0.02682065,-0.01066846,-0.23121184,0.32581016,-0.13817693,-0.00865472,0.00105210,-0.04941371,-0.01145842,0.08587170,-0.00516194,-0.00037561,0.00991841,-0.00089759,0.60090590,0.38878855,13.02649117,0.24460948,0.00000000,0.00000000,1.50000000,0.08729400,0.00000000,1.00000000,79.40106201,14.46094704,-2071988480.00000000,0.00000000,-0.00000000,21.00000000,0.09253372,0.00556322,9.85478783,-0.01684792,-0.00506989,-0.05247395,0.18734510,0.04849913,-0.46207708,0.01170011,-0.01609239,0.60426742,0.44306409,-0.62247419,11.47260571,0.99944717,0.02709380,0.01926348,0.00052221,0.00582260,-0.00704964,0.03772807,0.00205828,0.00148876,0.00304041,22217608.00000000,-0.00000000,-732586304.00000000,4283.56494141,-3211715521053458432.00000000,283622065221664768.00000000,0.00000000,0.00000000,73.00013733,-10134229811724288.00000000,17729922081629812686597420333662208.00000000,0.00000000
0.55755317,-0.54558855,11.12234879,0.02128450,-0.00638535,-0.03086253,0.19451904,0.05813599,-0.44726562,0.00000000,-0.00000000,0.31000000,0.01200000,0.00900000,0.03600000,0.99943465,0.00363355,0.00429225,-0.03314885,-0.01973144,0.02714663,-0.01080674,-0.23102546,0.32564810,-0.13814031,-0.00865472,0.00105210,-0.04941371,-0.01145842,0.08587170,-0.00516194,-0.00037561,0.00991841,-0.00089759,0.60055840,0.38817182,13.02701664,0.24566455,0.00000000,0.00000000,1.50000000,0.08829500,0.00000000,1.00000000,79.40259552,14.56645489,-2071988480.00000000,0.00000000,-0.00000000,21.00000000,0.09826427,0.00531563,9.83508015,-0.01522094,-0.00408217,-0.05185374,0.18812935,0.04939390,-0.46060425,0.01183886,-0.01628798,0.60432273,0.44304508,-0.62261623,11.47309303,0.99944705,0.02709882,0.01926182,0.00052226,0.00588929,-0.00713126,0.03817400,0.00208111,0.00150463,0.00307414,22217608.00000000,-0.00000000,-732586304.00000000,4283.56494141,-3211715521053458432.00000000,283622065221664768.00000000,0.00000000,0.00000000,73.00013733,-10134229811724288.00000000,17729922081629812686597420333662208.00000000,0.00000000
-0.02632225,-0.19861336,10.85912609,0.01702760,-0.01277070,-0.02873408,0.19616699,0.05880737,-0.44384766,0.00000000,-0.00000000,0.31000000,0.01200000,0.00900000,0.03600000,0.99943465,0.00363028,0.00428963,-0.03315001,-0.02002937,0.02756676,-0.01098504,-0.23077632,0.32543370,-0.13810851,-0.00865472,0.00105210,-0.04941371,-0.01145842,0.08587170,-0.00516194,-0.00037561,0.00991841,-0.00089759,0.59991407,0.38758519,13.02770805,0.24658255,0.00000000,0.00000000,1.50000000,0.08958600,0.00000000,1.00000000,79.40460968,14.65825462,-2071988480.00000000,0.00000000,-0.00000000,21.00000000,0.10546564,0.00147613,9.82320595,-0.01357241,-0.00318375,-0.05122749,0.18886912,0.05024654,-0.45920548,0.01201762,-0.01654006,0.60439402,0.44300437,-0.62278926,11.47375488,0.99944693,0.02710477,0.01925893,0.00052230,0.00597529,-0.00723653,0.03874914,0.00211057,0.00152511,0.00311765,22217608.00000000,-0.00000000,-732586304.00000000,4283.56494141,-3211715521053458432.00000000,283622065221664768.00000000,0.00000000,0.00000000,73.00013733,-10134229811724288.00000000,17729922081629812686597420333662208.00000000,0.00000000
-0.48576522,-0.14357592,10.32310963,0.01489915,-0.01702760,-0.01064225,0.19616699,0.05880737,-0.44384766,0.00000000,-0.00000000,0.31000000,0.01200000,0.00900000,0.03600000,0.99943465,0.00362908,0.00428845,-0.03315042,-0.02019289,0.02779741,-0.01108295,-0.23063509,0.32531136,-0.13809429,-0.00865472,0.00105210,-0.04941371,-0.01145842,0.08587170,-0.00516194,-0.00037561,0.00991841,-0.00089759,0.59895039,0.38706297,13.02808189,0.24723621,0.00000000,0.00000000,1.50000000,0.09029500,0.00000000,1.00000000,79.40570068,14.72362041,-2071988480.00000000,0.00000000,-0.00000000,21.00000000,0.11216577,-0.00463191,9.81871891,-0.01192346,-0.00239999,-0.05055821,0.18957101,0.05105764,-0.45787126,0.01211574,-0.01667845,0.60443324,0.44297397,-0.62287599,11.47412586,0.99944687,0.02710766,0.01925698,0.00052230,0.00602251,-0.00729435,0.03906501,0.00212675,0.00153636,0.00314154,22217608.00000000,-0.00000000,-732586304.00000000,4283.56494141,-3211715521053458432.00000000,283622065221664768.00000000,0.00000000,0.00000000,73.00013733,-10134229811724288.00000000,17729922081629812686597420333662208.00000000,0.00000000
-0.41397727,-0.40919140,10.55761623,0.01064225,-0.00851380,0.00532113,0.19616699,0.05880737,-0.44384766,0.00000000,-0.00000000,0.31000000,0.01200000,0.00900000,0.03600000,0.99943465,0.00362822,0.00428708,-0.03315060,-0.02042332,0.02812254,-0.01122102,-0.23043196,0.32513112,-0.13807364,-0.00865472,0.00105210,-0.04941371,-0.01145842,0.08587170,-0.00516194,-0.00037561,0.00991841,-0.00089759,0.59766173,0.38663435,13.02858543,0.24747856,0.00000000,0.00000000,1.50000000,0.09129500,0.00000000,1.00000000,79.40716553,14.74785614,-2071988480.00000000,0.00000000,-0.00000000,21.00000000,0.11662485,-0.01205501,9.81941891,-0.01029400,-0.00174442,-0.04976752,0.19023800,0.05182748,-0.45659775,0.01225399,-0.01687352,0.60448843,0.44292384,-0.62298429,11.47464752,0.99944687,0.02711114,0.01925392,0.00052228,0.00608911,-0.00737589,0.03951055,0.00214958,0.00155222,0.00317524,22217608.00000000,-0.00000000,-732586304.00000000,4283.56494141,-3211715521053458432.00000000,283622065221664768.00000000,0.00000000,0.00000000,73.00013733,-10134229811724288.00000000,17729922081629812686597420333662208.00000000,0.00000000
0.03110812,-0.84470505,10.85194683,0.00212845,0.01170648,0.02341295,0.19470215,0.05722046,-0.44311523,0.00000000,-0.00000000,0.31000000,0.01200000,0.00900000,0.03600000,0.99943465,0.00362813,0.00428563,-0.03315018,-0.02072047,0.02854197,-0.01139923,-0.23016775,0.32488701,-0.13804069,-0.00865472,0.00105210,-0.04941371,-0.01145842,0.08587170,-0.00516194,-0.00037561,0.00991841,-0.00089759,0.59605342,0.38631472,13.02919769,0.24708909,0.00000000,0.00000000,1.50000000,0.09258600,0.00000000,1.00000000,79.40895081,14.70890808,-2071988480.00000000,0.00000000,-0.00000000,21.00000000,0.11872207,-0.02074555,9.82436371,-0.00871196,-0.00118770,-0.04876726,0.19086806,0.05255460,-0.45538411,0.01243228,-0.01712518,0.60455972,0.44285509,-0.62310308,11.47530746,0.99944687,0.02711475,0.01924982,0.00052224,0.00617506,-0.00748117,0.04008577,0.00217906,0.00157269,0.00321875,22217608.00000000,-0.00000000,-732586304.00000000,4283.56494141,-3211715521053458432.00000000,283622065221664768.00000000,0.00000000,0.00000000,73.00013733,-10134229811724288.00000000,17729922081629812686597420333662208.00000000,0.00000000
0.24407908,-1.39029360,10.38532543,-0.00957803,0.01596338,0.03405520,0.19470215,0.05722046,-0.44311523,0.00000000,-0.00000000,0.31000000,0.01200000,0.00900000,0.03600000,0.99943465,0.00362862,0.00428500,-0.03314951,-0.02088333,0.02877189,-0.01149695,-0.23002292,0.32474521,-0.13801678,-0.00865472,0.00105210,-0.04941371,-0.01145842,0.08587170,-0.00516194,-0.00037561,0.00991841,-0.00089759,0.59415305,0.38610500,13.02950478,0.24587613,0.00000000,0.00000000,1.50000000,0.09329400,0.00000000,1.00000000,79.40984344,14.58761311,-2071988480.00000000,0.00000000,-0.00000000,21.00000000,0.11929701,-0.03187251,9.83270645,-0.00722330,-0.00067236,-0.04749962,0.19145779,0.05323666,-0.45422795,0.01253000,-0.01726313,0.60459876,0.44281745,-0.62315392,11.47565556,0.99944687,0.02711613,0.01924760,0.00052221,0.00622219,-0.00753891,0.04040123,0.00219523,0.00158391,0.00324261,22217608.00000000,-0.00000000,-732586304.00000000,4283.56494141,-3211715521053458432.00000000,283622065221664768.00000000,0.00000000,0.00000000,73.00013733,-10134229811724288.00000000,17729922081629812686597420333662208.00000000,0.00000000
0.64848459,-1.30175507,9.61958694,-0.01702760,0.00425690,0.02447718,0.19470215,0.05722046,-0.44311523,0.00000000,-0.00000000,0.31000000,0.01200000,0.00900000,0.03600000,0.99943471,0.00363000,0.00428434,-0.03314779,-0.02111338,0.02909674,-0.01163506,-0.22981884,0.32452947,-0.13797359,-0.00865472,0.00105210,-0.04941371,-0.01145842,0.08587170,-0.00516194,-0.00037561,0.00991841,-0.00089759,0.59200776,0.38598421,13.02989769,0.24387334,0.00000000,0.00000000,1.50000000,0.09429500,0.00000000,1.00000000,79.41099548,14.38733387,-2071988480.00000000,0.00000000,-0.00000000,21.00000000,0.11956614,-0.04702080,9.84217834,-0.00587828,-0.00017191,-0.04596304,0.19200629,0.05387329,-0.45312840,0.01266803,-0.01745805,0.60465401,0.44276518,-0.62319803,11.47612858,0.99944693,0.02711694,0.01924453,0.00052214,0.00628882,-0.00762054,0.04084725,0.00221808,0.00159978,0.00327634,22217608.00000000,-0.00000000,-732586304.00000000,4283.56494141,-3211715521053458432.00000000,283622065221664768.00000000,0.00000000,0.00000000,73.00013733,-10134229811724288.00000000,17729922081629812686597420333662208.00000000,0.00000000
0.56951785,-0.47619349,9.00938988,-0.02766985,-0.01383493,0.01277070,0.19360352,0.05654907,-0.44494629,0.00000000,-0.00000000,0.31000000,0.01200000,0.00900000,0.03600000,0.99943483,0.00363254,0.00428375,-0.03314445,-0.02140996,0.02951564,-0.01181324,-0.22955509,0.32422620,-0.13790764,-0.00865472,0.00105210,-0.04941371,-0.01145842,0.08587170,-0.00516194,-0.00037561,0.00991841,-0.00089759,0.58968014,0.38594198,13.03035927,0.24121809,0.00000000,0.00000000,1.50000000,0.09558700,0.00000000,1.00000000,79.41233826,14.12180901,-2071988480.00000000,0.00000000,-0.00000000,21.00000000,0.12103821,-0.06606704,9.85023689,-0.00471964,0.00029404,-0.04421201,0.19251297,0.05446394,-0.45208806,0.01284598,-0.01770939,0.60472530,0.44269672,-0.62320989,11.47671604,0.99944699,0.02711607,0.01924058,0.00052202,0.00637481,-0.00772589,0.04142294,0.00224758,0.00162026,0.00331987,22217608.00000000,-0.00000000,-732586304.00000000,4283.56494141,-3211715521053458432.00000000,283622065221664768.00000000,0.00000000,0.00000000,73.00013733,-10134229811724288.00000000,17729922081629812686597420333662208.00000000,0.00000000
0.14357592,0.44269246,8.57866192,-0.02873408,-0.02766985,0.02660563,0.19360352,0.05654907,-0.44494629,0.00000000,-0.00000000,0.31000000,0.01200000,0.00900000,0.03600000,0.99943489,0.00363427,0.00428355,-0.03314193,-0.02157238,0.02974506,-0.01191085,-0.22940922,0.32404542,-0.13786833,-0.00865472,0.00105210,-0.04941371,-0.01145842,0.08587170,-0.00516194,-0.00037561,0.00991841,-0.00089759,0.58726126,0.38599789,13.03059292,0.23797755,0.00000000,0.00000000,1.50000000,0.09629500,0.00000000,1.00000000,79.41301727,13.79775429,-2071988480.00000000,0.00000000,-0.00000000,21.00000000,0.12424515,-0.08644599,9.85488415,-0.00377726,0.00068182,-0.04228465,0.19297610,0.05500680,-0.45111105,0.01294343,-0.01784704,0.60476434,0.44265670,-0.62318999,11.47703075,0.99944711,0.02711446,0.01923832,0.00052193,0.00642193,-0.00778362,0.04173841,0.00226374,0.00163148,0.00334372,22217608.00000000,-0.00000000,-732586304.00000000,4283.56494141,-3211715521053458432.00000000,283622065221664768.00000000,0.00000000,0.00000000,73.00013733,-10134229811724288.00000000,17729922081629812686597420333662208.00000000,0.00000000
-0.16989818,0.88777781,8.67437935,-0.03192675,-0.03086253,0.00851380,0.19360352,0.05654907,-0.44494629,0.00000000,-0.00000000,0.31000000,0.01200000,0.00900000,0.03600000,0.99943501,0.00363708,0.00428339,-0.03313734,-0.02180158,0.03006884,-0.01204866,-0.22920038,0.32377154,-0.13781330,-0.00865472,0.00105210,-0.04941371,-0.01145842,0.08587170,-0.00516194,-0.00037561,0.00991841,-0.00089759,0.58482814,0.38618207,13.03091145,0.23424828,0.00000000,0.00000000,1.50000000,0.09729500,0.00000000,1.00000000,79.41394806,13.42482758,-2071988480.00000000,0.00000000,-0.00000000,21.00000000,0.12828249,-0.10471409,9.85455322,-0.00306125,0.00094274,-0.04020438,0.19339608,0.05550222,-0.45019832,0.01308095,-0.01804130,0.60481948,0.44259486,-0.62312824,11.47747612,0.99944723,0.02711073,0.01923490,0.00052176,0.00648847,-0.00786515,0.04218399,0.00228656,0.00164732,0.00337741,22217608.00000000,-0.00000000,-732586304.00000000,4283.56494141,-3211715521053458432.00000000,283622065221664768.00000000,0.00000000,0.00000000,73.00013733,-10134229811724288.00000000,17729922081629812686597420333662208.00000000,0.00000000
-0.72266549,0.89495659,9.47840405,-0.04044056,-0.02341295,-0.02979830,0.19366455,0.05648804,-0.44750977,0.00000000,-0.00000000,0.31000000,0.01200000,0.00900000,0.03600000,0.99943525,0.00364104,0.00428323,-0.03313005,-0.02209736,0.03048667,-0.01222663,-0.22892794,0.32340008,-0.13774936,-0.00865472,0.00105210,-0.04941371,-0.01145842,0.08587170,-0.00516194,-0.00037561,0.00991841,-0.00089759,0.58245856,0.38653919,13.03132343,0.23030531,0.00000000,0.00000000,1.50000000,0.09858700,0.00000000,1.00000000,79.41514587,13.03053093,-2071988480.00000000,0.00000000,-0.00000000,21.00000000,0.13125189,-0.11812606,9.84913540,-0.00257924,0.00104407,-0.03808205,0.19377495,0.05595263,-0.44935191,0.01325841,-0.01829200,0.60489064,0.44250986,-0.62301618,11.47806835,0.99944752,0.02710448,0.01923023,0.00052151,0.00657443,-0.00797048,0.04275969,0.00231603,0.00166778,0.00342092,22217608.00000000,-0.00000000,-732586304.00000000,4283.56494141,-3211715521053458432.00000000,283622065221664768.00000000,0.00000000,0.00000000,73.00013733,-10134229811724288.00000000,17729922081629812686597420333662208.00000000,0.00000000
-0.59584010,0.41637018,10.09578037,-0.05001858,-0.01170648,-0.03724788,0.19366455,0.05648804,-0.44750977,0.00000000,-0.00000000,0.31000000,0.01200000,0.00900000,0.03600000,0.99943542,0.00364329,0.00428311,-0.03312534,-0.02225933,0.03071549,-0.01232414,-0.22877915,0.32319131,-0.13772042,-0.00865472,0.00105210,-0.04941371,-0.01145842,0.08587170,-0.00516194,-0.00037561,0.00991841,-0.00089759,0.58026618,0.38712379,13.03155613,0.22649229,0.00000000,0.00000000,1.50000000,0.09929500,0.00000000,1.00000000,79.41582489,12.64922810,-2071988480.00000000,0.00000000,-0.00000000,21.00000000,0.13109446,-0.12552676,9.84056187,-0.00234880,0.00098931,-0.03606407,0.19411473,0.05636072,-0.44857660,0.01335560,-0.01842929,0.60492963,0.44246408,-0.62294531,11.47840595,0.99944764,0.02710061,0.01922769,0.00052137,0.00662153,-0.00802819,0.04307516,0.00233218,0.00167899,0.00344476,22217608.00000000,-0.00000000,-732586304.00000000,4283.56494141,-3211715521053458432.00000000,283622065221664768.00000000,0.00000000,0.00000000,73.00013733,-10134229811724288.00000000,17729922081629812686597420333662208.00000000,0.00000000
-0.47140762,0.07896676,10.12688923,-0.05640393,-0.00744958,-0.05108281,0.19366455,0.05648804,-0.44750977,0.00000000,-0.00000000,0.31000000,0.01200000,0.00900000,0.03600000,0.99943566,0.00364645,0.00428287,-0.03311777,-0.02248768,0.03103806,-0.01246169,-0.22857349,0.32289490,-0.13768886,-0.00865472,0.00105210,-0.04941371,-0.01145842,0.08587170,-0.00516194,-0.00037561,0.00991841,-0.00089759,0.57834190,0.38796523,13.03189850,0.22303620,0.00000000,0.00000000,1.50000000,0.10029400,0.00000000,1.00000000,79.41682434,12.30361938,-2071988480.00000000,0.00000000,-0.00000000,21.00000000,0.12703359,-0.12765375,9.83126831,-0.00238350,0.00081684,-0.03423141,0.19441743,0.05672885,-0.44787267,0.01349261,-0.01862284,0.60498470,0.44240698,-0.62284154,11.47890282,0.99944788,0.02709493,0.01922440,0.00052117,0.00668800,-0.00810962,0.04352032,0.00235495,0.00169481,0.00347840,22217608.00000000,-0.00000000,-732586304.00000000,4283.56494141,-3211715521053458432.00000000,283622065221664768.00000000,0.00000000,0.00000000,73.00013733,-10134229811724288.00000000,17729922081629812686597420333662208.00000000,0.00000000
-0.63412702,0.22493562,10.16996193,-0.06172506,-0.01170648,-0.07662421,0.19348145,0.05715942,-0.44842529,0.00000000,-0.00000000,0.31000000,0.01200000,0.00900000,0.03600000,0.99906117,-0.00615613,-0.00457842,-0.04263746,0.00034870,0.00001471,0.00035394,0.00479649,-0.00016786,0.00412439,-0.00865480,0.00105241,-0.04941267,-0.01145803,0.08587163,-0.00516160,-0.00037483,0.00991830,-0.00089740,0.57677805,0.38907501,13.03235722,0.22013059,0.00000000,0.00000000,1.50000000,0.10158700,0.00000000,1.00000000,79.41815948,12.01305866,-2071988480.00000000,0.00000000,-0.00000000,21.00000000,0.11909879,-0.12608267,9.82330227,-0.00268783,0.00057360,-0.03266038,0.19468506,0.05705963,-0.44723836,-0.00020922,-0.00000883,0.59985846,-0.00232530,-0.00782327,11.15609741,0.99999994,0.00035063,-0.00010422,-0.00000004,0.00668497,-0.00810952,0.04398249,0.00236337,0.00170062,0.00353352,22217608.00000000,-0.00000000,-732586304.00000000,4283.56494141,-3211715521053458432.00000000,283622065221664768.00000000,0.00000000,0.00000000,73.00013733,-10134229811724288.00000000,17729922081629812686597420333662208.00000000,0.00000000
-0.51448041,0.80402517,10.44754124,-0.06385351,-0.02554140,-0.08939491,0.19348145,0.05715942,-0.44842529,0.00000000,-0.00000000,0.31000000,0.01200000,0.00900000,0.03600000,0.99906147,-0.00615426,-0.00457874,-0.04263106,0.00035212,0.00001455,0.00035688,0.00480805,-0.00023347,0.00414209,-0.00865480,0.00105241,-0.04941267,-0.01145803,0.08587163,-0.00516160,-0.00037483,0.00991830,-0.00089740,0.57569247,0.39045846,13.03261185,0.21800958,0.00000000,0.00000000,1.50000000,0.10229800,0.00000000,1.00000000,79.41889954,11.80095768,-2071988480.00000000,0.00000000,-0.00000000,21.00000000,0.10765824,-0.12167969,9.81877136,-0.00326201,0.00028220,-0.03144680,0.19491953,0.05735603,-0.44667321,-0.00021127,-0.00000873,0.59985727,-0.00235158,-0.00770491,11.15631008,0.99999994,0.00034532,-0.00010539,-0.00000004,0.00668320,-0.00810944,0.04423663,0.00236800,0.00170381,0.00356383,22217608.00000000,-0.00000000,-732586304.00000000,4283.56494141,-3211715521053458432.00000000,283622065221664768.00000000,0.00000000,0.00000000,73.00013733,-10134229811724288.00000000,17729922081629812686597420333662208.00000000,0.00000000
-0.51208746,1.45490277,10.46189880,-0.06491774,-0.03511943,-0.09790871,0.19348145,0.05715942,-0.44842529,0.00000000,0.00846475,0.30399999,0.00000000,0.00400000,0.00500000,0.99905199,-0.00723185,-0.00544887,-0.04258220,0.00074883,0.00118065,-0.00102374,0.00243984,0.00279925,0.00446319,-0.00865480,0.00105241,-0.04941267,-0.01145803,0.08587163,-0.00516160,-0.00037483,0.00991830,-0.00089740,0.57518578,0.39213535,13.03295422,0.21683326,0.00000000,0.00000000,1.50000000,0.10331400,0.00000000,1.00000000,79.41989899,11.68332577,-2071988480.00000000,0.00000000,-0.00000000,21.00000000,0.09381525,-0.11387222,9.81896019,-0.00409981,-0.00007336,-0.03064631,0.19512287,0.05762037,-0.44617477,-0.00044930,-0.00070839,0.60040951,0.00148129,-0.01442497,11.15718174,0.99999982,0.00064644,0.00006638,0.00000004,0.00668174,-0.00811122,0.04459991,0.00237600,0.00170944,0.00360709,22217608.00000000,-0.00000000,-732586304.00000000,4283.56494141,-3211715521053458432.00000000,283622065221664768.00000000,0.00000000,0.00000000,73.00013733,-10134229811724288.00000000,17729922081629812686597420333662208.00000000,0.00000000
-0.94042236,1.77076983,10.11492443,-0.06066084,-0.03511943,-0.09471604,0.19494629,0.05935669,-0.44531250,0.00000000,0.00846475,0.30399999,0.00000000,0.00400000,0.00500000,0.99905252,-0.00722975,-0.00544988,-0.04257001,0.00075189,0.00118414,-0.00101801,0.00240451,0.00273911,0.00449946,-0.00865480,0.00105241,-0.04941267,-0.01145803,0.08587163,-0.00516160,-0.00037483,0.00991830,-0.00089740,0.57532531,0.39412093,13.03338146,0.21661735,0.00000000,0.00000000,1.50000000,0.10458700,0.00000000,1.00000000,79.42115021,11.66173458,-2071988480.00000000,0.00000000,-0.00000000,21.00000000,0.07799750,-0.10100386,9.82280064,-0.00517920,-0.00052607,-0.03026204,0.19529876,0.05785751,-0.44573516,-0.00045113,-0.00071048,0.60040724,0.00153978,-0.01432266,11.15755272,0.99999982,0.00064184,0.00006900,0.00000004,0.00667994,-0.00811340,0.04505507,0.00238601,0.00171650,0.00366128,22217608.00000000,-0.00000000,-732586304.00000000,4283.56494141,-3211715521053458432.00000000,283622065221664768.00000000,0.00000000,0.00000000,73.00013733,-10134229811724288.00000000,17729922081629812686597420333662208.00000000,0.00000000
-0.90213543,1.59608579,9.97613430,-0.05640393,-0.02660563,-0.09578026,0.19494629,0.05935669,-0.44531250,0.00000000,0.00846475,0.30399999,0.00000000,0.00400000,0.00500000,0.99905282,-0.00722904,-0.00545063,-0.04256323,0.00075357,0.00118606,-0.00101481,0.00237297,0.00272054,0.00452291,-0.00865480,0.00105241,-0.04941267,-0.01145803,0.08587163,-0.00516160,-0.00037483,0.00991830,-0.00089740,0.57618511,0.39644223,13.03360653,0.21729031,0.00000000,0.00000000,1.50000000,0.10529500,0.00000000,1.00000000,79.42179871,11.72903061,-2071988480.00000000,0.00000000,-0.00000000,21.00000000,0.05954932,-0.08153073,9.82791424,-0.00645824,-0.00109416,-0.03026736,0.19545208,0.05807476,-0.44534367,-0.00045214,-0.00071164,0.60040593,0.00159374,-0.01429254,11.15775108,0.99999982,0.00064048,0.00007142,0.00000005,0.00667895,-0.00811461,0.04530820,0.00239158,0.00172043,0.00369142,22217608.00000000,-0.00000000,-732586304.00000000,4283.56494141,-3211715521053458432.00000000,283622065221664768.00000000,0.00000000,0.00000000,73.00013733,-10134229811724288.00000000,17729922081629812686597420333662208.00000000,0.00000000
-0.75377363,1.29696918,9.90195274,-0.05640393,-0.00851380,-0.10855097,0.19494629,0.05935669,-0.44531250,0.00000000,0.00846475,0.30399999,0.00000000,0.00400000,0.00500000,0.99905318,-0.00722877,-0.00545198,-0.04255385,0.00075587,0.00118878,-0.00101025,0.00230950,0.00272263,0.00456037,-0.00865480,0.00105241,-0.04941267,-0.01145803,0.08587163,-0.00516160,-0.00037483,0.00991830,-0.00089740,0.57780719,0.39912856,13.03390694,0.21882433,0.00000000,0.00000000,1.50000000,0.10629400,0.00000000,1.00000000,79.42267609,11.88243294,-2071988480.00000000,0.00000000,-0.00000000,21.00000000,0.03830116,-0.05500291,9.83290768,-0.00789133,-0.00175486,-0.03064590,0.19558565,0.05827574,-0.44499424,-0.00045352,-0.00071327,0.60040414,0.00170413,-0.01430094,11.15802193,0.99999982,0.00064084,0.00007636,0.00000005,0.00667758,-0.00811632,0.04566535,0.00239944,0.00172598,0.00373392,22217608.00000000,-0.00000000,-732586304.00000000,4283.56494141,-3211715521053458432.00000000,283622065221664768.00000000,0.00000000,0.00000000,73.00013733,-10134229811724288.00000000,17729922081629812686597420333662208.00000000,0.00000000
