accel_x,accel_y,accel_z,gyro_yaw,gyro_pitch,gyro_roll,mag_x,mag_y,mag_z,gps_pos_north,gps_pos_west,gps_pos_up,gps_vel_north,gps_vel_west,gps_vel_up,state_q_vec_w,state_q_vec_x,state_q_vec_y,state_q_vec_z,state_pos_north,state_pos_west,state_pos_up,state_vel_north,state_vel_west,state_vel_up,gyro_bias_yaw,gyro_bias_pitch,gyro_bias_roll,accel_bias_x,accel_bias_y,accel_bias_z,mag_bias_x,mag_bias_y,mag_bias_z,gimbal_yaw_raw,gimbal_pitch_raw,thrust_N,roll_rad_sec_squared,target_pos_north,target_pos_west,target_pos_up,elapsed_time,GND_flag,flight_armed,thrust_perc,diffy_perc,rtk_status,gps_hor_prec,gps_ver_prec,gps_sat_count,filtered_accel_x,filtered_accel_y,filtered_accel_z,filtered_gyro_x,filtered_gyro_y,filtered_gyro_z,filtered_mag_x,filtered_mag_y,filtered_mag_z,velocity_target_x,velocity_target_y,velocity_target_z,accel_target_x,accel_target_y,accel_target_z,attitude_target[0],attitude_target[1],attitude_target[2],attitude_target[3],velocity_integrator_x,velocity_integrator_y,velocity_integrator_z,attitude_integrator_x,attitude_integrator_y,attitude_integrator_z,posCovNN,posCovNE,posCovND,posCovEE,posCovED,posCovDD,velCovNN,velCovNE,velCovND,velCovEE,velCovED,velCovDD
0.12443247,-0.07418089,9.78709221,-0.00744958,0.00212845,-0.03831211,0.00000000,0.00000000,0.00000000,0.00000000,0.00000000,0.31000000,0.00000000,0.00000000,0.00000000,0.99903625,-0.00576242,-0.00572284,-0.04313578,0.00130929,-0.00143254,0.00001512,-0.25550166,0.30686012,-0.00671475,-0.00790497,0.00143617,-0.05225930,-0.01332040,0.04794654,-0.00552775,-0.00257014,0.00554296,-0.00131267,0.00000000,0.00000000,0.00000000,0.00000000,0.00000000,0.00000000,0.00000000,0.00030000,0.00000000,1.00000000,0.00000000,0.00000000,-98567536.00000000,0.00000000,-207667313611013683196565854544199680.00000000,159.00000000,0.99893349,0.99869150,1.01070333,0.99877280,0.99878448,0.99873525,0.99878186,0.99878186,0.99878186,-0.00078557,0.00085952,-0.00000681,0.45850936,-0.55082256,9.81827354,0.99933624,0.02801024,0.02328501,0.00065265,0.00002038,-0.00002152,0.00000300,0.00000982,0.00000906,0.00001312,23528348.00000000,-0.00000000,3146434217177513984.00000000,4283.56494141,-5849222089617178624.00000000,283340590244954112.00000000,-15326345216.00000000,0.00000000,73.03144836,-2594362831801417728.00000000,17729922081629812686597420333662208.00000000,0.00000000
0.12682541,-0.05264451,9.80144978,-0.00957803,0.00106423,-0.03937633,0.18145752,0.05551147,-0.45123291,0.00000000,-0.00000000,0.31000000,-0.00100000,0.00500000,0.02900000,0.99908507,-0.00485916,-0.00493139,-0.04220318,0.00143321,-0.00151793,0.00002135,-0.26686859,0.32365319,-0.00051450,-0.00790497,0.00143617,-0.05225930,-0.01332040,0.04794654,-0.00552775,-0.00257014,0.00554296,-0.00131267,0.01929968,0.01902318,12.94459343,0.21857090,0.00000000,0.00000000,0.50000000,0.00203300,0.00000000,1.00000000,79.16233063,11.85709000,-98567536.00000000,0.00000000,-207667313611013683196565854544199680.00000000,159.00000000,0.99492377,0.99379462,1.05099058,0.99415320,0.99421006,0.99397546,0.99441868,0.99426621,0.99365264,-0.00085993,0.00091076,0.22499040,0.47892517,-0.58105886,10.36550045,0.99934256,0.02798810,0.02303826,0.00064522,0.00010957,-0.00012250,0.00023749,0.00006502,0.00005953,0.00008728,23528348.00000000,-0.00000000,3146434217177513984.00000000,4283.56494141,-5849222089617178624.00000000,283340590244954112.00000000,-15326345216.00000000,0.00000000,73.03144836,-2594362831801417728.00000000,17729922081629812686597420333662208.00000000,0.00000000
0.13879006,-0.05743037,9.81820011,-0.00638535,0.00106423,-0.03724788,0.18145752,0.05551147,-0.45123291,0.00000000,-0.00000000,0.31000000,-0.00100000,0.00500000,0.02900000,0.99910057,-0.00455873,-0.00465504,-0.04190053,0.00127773,-0.00132862,0.00001809,-0.26624632,0.32415566,-0.00557653,-0.00790497,0.00143617,-0.05225930,-0.01332040,0.04794654,-0.00552775,-0.00257014,0.00554296,-0.00131267,0.03794788,0.03741303,12.94476891,0.21220307,0.00000000,0.00000000,0.50000000,0.00261700,0.00000000,1.00000000,79.16284180,11.22030640,-98567536.00000000,0.00000000,-207667313611013683196565854544199680.00000000,159.00000000,0.98741543,0.98464441,1.12668371,0.98547876,0.98561901,0.98503900,0.98664242,0.98591512,0.98298889,-0.00076664,0.00079717,0.22499186,0.47800320,-0.58220202,10.37823963,0.99934363,0.02800874,0.02296573,0.00064366,0.00013978,-0.00015675,0.00031828,0.00008346,0.00007633,0.00011210,23528348.00000000,-0.00000000,3146434217177513984.00000000,4283.56494141,-5849222089617178624.00000000,283340590244954112.00000000,-15326345216.00000000,0.00000000,73.03144836,-2594362831801417728.00000000,17729922081629812686597420333662208.00000000,0.00000000
0.13639714,-0.05743037,9.80862904,-0.00638535,0.00212845,-0.03937633,0.18145752,0.05551147,-0.45123291,0.00000000,-0.00000000,0.31000000,-0.00100000,0.00500000,0.02900000,0.99911803,-0.00421384,-0.00433781,-0.04155303,0.00109743,-0.00110813,0.00001036,-0.26553148,0.32473210,-0.01138734,-0.00790497,0.00143617,-0.05225930,-0.01332040,0.04794654,-0.00552775,-0.00257014,0.00554296,-0.00131267,0.05595789,0.05519134,12.94500637,0.20655321,0.00000000,0.00000000,0.50000000,0.00329600,0.00000000,1.00000000,79.16352844,10.65532017,-98567536.00000000,0.00000000,-207667313611013683196565854544199680.00000000,159.00000000,0.97654498,0.97138262,1.23669100,0.97288400,0.97313982,0.97206014,0.97570390,0.97389418,0.96661359,-0.00065846,0.00066488,0.22499533,0.47694638,-0.58351767,10.39287186,0.99934489,0.02803251,0.02288275,0.00064188,0.00017493,-0.00019670,0.00041458,0.00010469,0.00009558,0.00014071,23528348.00000000,-0.00000000,3146434217177513984.00000000,4283.56494141,-5849222089617178624.00000000,283340590244954112.00000000,-15326345216.00000000,0.00000000,73.03144836,-2594362831801417728.00000000,17729922081629812686597420333662208.00000000,0.00000000
0.12203954,-0.07178796,9.79666424,-0.00851380,0.00212845,-0.04363323,0.17858887,0.05630493,-0.45495605,0.00000000,-0.00000000,0.31000000,-0.00100000,0.00500000,0.02900000,0.99914974,-0.00356933,-0.00374497,-0.04090345,0.00075636,-0.00068751,-0.00001836,-0.26419380,0.32580793,-0.02224638,-0.00790497,0.00143617,-0.05225930,-0.01332040,0.04794654,-0.00552775,-0.00257014,0.00554296,-0.00131267,0.07332403,0.07237591,12.94550800,0.20159385,0.00000000,0.00000000,0.50000000,0.00458700,0.00000000,1.00000000,79.16499329,10.15938473,-98567536.00000000,0.00000000,-207667313611013683196565854544199680.00000000,159.00000000,0.96206707,0.95370346,1.38330185,0.95610332,0.95651203,0.95475733,0.96131635,0.95793486,0.94430816,-0.00045381,0.00041251,0.22500825,0.47497374,-0.58598477,10.42024326,0.99934715,0.02807708,0.02272834,0.00063856,0.00024175,-0.00027299,0.00060611,0.00014432,0.00013121,0.00019428,23528348.00000000,-0.00000000,3146434217177513984.00000000,4283.56494141,-5849222089617178624.00000000,283340590244954112.00000000,-15326345216.00000000,0.00000000,73.03144836,-2594362831801417728.00000000,17729922081629812686597420333662208.00000000,0.00000000
0.11486074,-0.06221624,9.81580734,-0.00744958,0.00212845,-0.03511943,0.17858887,0.05630493,-0.45495605,0.00000000,-0.00000000,0.31000000,-0.00100000,0.00500000,0.02900000,0.99916631,-0.00322352,-0.00342688,-0.04055481,0.00056982,-0.00045643,-0.00003824,-0.26347485,0.32638410,-0.02807251,-0.00790497,0.00143617,-0.05225930,-0.01332040,0.04794654,-0.00552775,-0.00257014,0.00554296,-0.00131267,0.09008434,0.08898852,12.94580841,0.19728535,0.00000000,0.00000000,0.50000000,0.00529500,0.00000000,1.00000000,79.16587067,9.86426735,-98567536.00000000,0.00000000,-207667313611013683196565854544199680.00000000,159.00000000,0.94402224,0.93169457,1.56568444,0.93522727,0.93582988,0.93322730,0.94361383,0.93814695,0.91604352,-0.00034189,0.00027386,0.22501719,0.47391781,-0.58731347,10.43493843,0.99934834,0.02810111,0.02264593,0.00063679,0.00027851,-0.00031505,0.00071362,0.00016583,0.00015046,0.00022340,23528348.00000000,-0.00000000,3146434217177513984.00000000,4283.56494141,-5849222089617178624.00000000,283340590244954112.00000000,-15326345216.00000000,0.00000000,73.03144836,-2594362831801417728.00000000,17729922081629812686597420333662208.00000000,0.00000000
0.10050315,-0.06700210,9.80623627,-0.00851380,0.00106423,-0.04256901,0.17858887,0.05630493,-0.45495605,0.00000000,-0.00000000,0.31000000,-0.00100000,0.00500000,0.02900000,0.99918842,-0.00274813,-0.00298961,-0.04007533,0.00030759,-0.00012958,-0.00007428,-0.26248407,0.32717395,-0.03608155,-0.00790497,0.00143617,-0.05225930,-0.01332040,0.04794654,-0.00552775,-0.00257014,0.00554296,-0.00131267,0.10624237,0.10504714,12.94626045,0.19356459,0.00000000,0.00000000,0.50000000,0.00629400,0.00000000,1.00000000,79.16719055,9.67822838,-98567536.00000000,0.00000000,-207667313611013683196565854544199680.00000000,159.00000000,0.92298657,0.90611225,1.77768695,0.91096461,0.91179341,0.90820706,0.92327595,0.91522741,0.88257295,-0.00018456,0.00007775,0.22503342,0.47246951,-0.58914775,10.45515823,0.99934995,0.02813435,0.02253313,0.00063437,0.00033041,-0.00037463,0.00087013,0.00019576,0.00017706,0.00026402,23528348.00000000,-0.00000000,3146434217177513984.00000000,4283.56494141,-5849222089617178624.00000000,283340590244954112.00000000,-15326345216.00000000,0.00000000,73.03144836,-2594362831801417728.00000000,17729922081629812686597420333662208.00000000,0.00000000
0.11246781,-0.06460917,9.79905701,-0.00638535,0.00212845,-0.03831211,0.18267822,0.05380249,-0.45318604,0.00000000,-0.00000000,0.31000000,-0.00100000,0.00500000,0.02900000,0.99921536,-0.00215116,-0.00244050,-0.03947296,-0.00002992,0.00029440,-0.00013389,-0.26123571,0.32816166,-0.04613843,-0.00790497,0.00143617,-0.05225930,-0.01332040,0.04794654,-0.00552775,-0.00257014,0.00554296,-0.00131267,0.12179819,0.12056892,12.94687843,0.19040413,0.00000000,0.00000000,0.50000000,0.00758600,0.00000000,1.00000000,79.16899109,9.52020645,-98567536.00000000,0.00000000,-207667313611013683196565854544199680.00000000,159.00000000,0.89977676,0.87797290,2.01084757,0.88428438,0.88536018,0.88068837,0.90113711,0.89009291,0.84518278,0.00001795,-0.00017664,0.22506024,0.47065416,-0.59146100,10.48057747,0.99935198,0.02817631,0.02239219,0.00063134,0.00039760,-0.00045209,0.00108037,0.00023377,0.00021056,0.00031578,23528348.00000000,-0.00000000,3146434217177513984.00000000,4283.56494141,-5849222089617178624.00000000,283340590244954112.00000000,-15326345216.00000000,0.00000000,73.03144836,-2594362831801417728.00000000,17729922081629812686597420333662208.00000000,0.00000000
0.10768194,-0.06460917,9.81102180,-0.01383493,0.00532113,-0.06278928,0.18267822,0.05380249,-0.45318604,0.00000000,-0.00000000,0.31000000,-0.00100000,0.00500000,0.02900000,0.99922931,-0.00183399,-0.00214875,-0.03915278,-0.00021467,0.00052744,-0.00017039,-0.26057011,0.32868403,-0.05148134,-0.00790497,0.00143617,-0.05225930,-0.01332040,0.04794654,-0.00552775,-0.00257014,0.00554296,-0.00131267,0.13680133,0.13557237,12.94723225,0.18785203,0.00000000,0.00000000,0.50000000,0.00829500,0.00000000,1.00000000,79.17002106,9.39260101,-98567536.00000000,0.00000000,-207667313611013683196565854544199680.00000000,159.00000000,0.87499756,0.84800309,2.25902319,0.85588062,0.85722989,0.85136503,0.87772709,0.86338013,0.80500174,0.00012880,-0.00031646,0.22507668,0.46969262,-0.59269565,10.49409294,0.99935299,0.02819875,0.02231771,0.00062974,0.00043458,-0.00049480,0.00119801,0.00025443,0.00022867,0.00034395,23528348.00000000,-0.00000000,3146434217177513984.00000000,4283.56494141,-5849222089617178624.00000000,283340590244954112.00000000,-15326345216.00000000,0.00000000,73.03144836,-2594362831801417728.00000000,17729922081629812686597420333662208.00000000,0.00000000
0.10768194,-0.06221624,9.81580734,-0.00851380,0.00212845,-0.03937633,0.18267822,0.05380249,-0.45318604,0.00000000,-0.00000000,0.31000000,-0.00100000,0.00500000,0.02900000,0.99924779,-0.00140214,-0.00175150,-0.03871661,-0.00047433,0.00085683,-0.00022915,-0.25965965,0.32939094,-0.05875604,-0.00790497,0.00143617,-0.05225930,-0.01332040,0.04794654,-0.00552775,-0.00257014,0.00554296,-0.00131267,0.15125781,0.15006877,12.94774914,0.18589993,0.00000000,0.00000000,0.50000000,0.00929500,0.00000000,1.00000000,79.17152405,9.29499626,-98567536.00000000,0.00000000,-207667313611013683196565854544199680.00000000,159.00000000,0.84883517,0.81644523,2.52024031,0.82597226,0.82763219,0.82045448,0.85315228,0.83527607,0.76256365,0.00028460,-0.00051410,0.22510310,0.46838638,-0.59438431,10.51251602,0.99935436,0.02822952,0.02221669,0.00062757,0.00048678,-0.00055526,0.00136833,0.00028318,0.00025372,0.00038325,23528348.00000000,-0.00000000,3146434217177513984.00000000,4283.56494141,-5849222089617178624.00000000,283340590244954112.00000000,-15326345216.00000000,0.00000000,73.03144836,-2594362831801417728.00000000,17729922081629812686597420333662208.00000000,0.00000000
0.11725368,-0.07896676,9.81102180,-0.00851380,0.00106423,-0.03724788,0.18414307,0.05587769,-0.45190430,0.00000000,-0.00000000,0.31000000,-0.00100000,0.00500000,0.02900000,0.99926996,-0.00086521,-0.00125755,-0.03817403,-0.00080833,0.00128353,-0.00031675,-0.25852087,0.33026254,-0.06780048,-0.00790497,0.00143617,-0.05225930,-0.01332040,0.04794654,-0.00552775,-0.00257014,0.00554296,-0.00131267,0.16516978,0.16407235,12.94843292,0.18441774,0.00000000,0.00000000,0.50000000,0.01058700,0.00000000,1.00000000,79.17352295,9.22088814,-98567536.00000000,0.00000000,-207667313611013683196565854544199680.00000000,159.00000000,0.82128000,0.78326845,2.79469299,0.79454398,0.79653931,0.78797179,0.82735664,0.80575031,0.71794814,0.00048500,-0.00077012,0.22514252,0.46676487,-0.59649247,10.53545284,0.99935603,0.02826796,0.02209164,0.00062489,0.00055430,-0.00063373,0.00159542,0.00031970,0.00028525,0.00043333,23528348.00000000,-0.00000000,3146434217177513984.00000000,4283.56494141,-5849222089617178624.00000000,283340590244954112.00000000,-15326345216.00000000,0.00000000,73.03144836,-2594362831801417728.00000000,17729922081629812686597420333662208.00000000,0.00000000
0.10768194,-0.07178796,9.80144978,-0.00851380,0.00106423,-0.04256901,0.18414307,0.05587769,-0.45190430,0.00000000,-0.00000000,0.31000000,-0.00100000,0.00500000,0.02900000,0.99928129,-0.00058302,-0.00099794,-0.03788869,-0.00099094,0.00151768,-0.00036811,-0.25791872,0.33071667,-0.07255369,-0.00790497,0.00143617,-0.05225930,-0.01332040,0.04794654,-0.00552775,-0.00257014,0.00554296,-0.00131267,0.17859091,0.17760468,12.94881248,0.18334582,0.00000000,0.00000000,0.50000000,0.01129500,0.00000000,1.00000000,79.17462921,9.16729164,-98567536.00000000,0.00000000,-207667313611013683196565854544199680.00000000,159.00000000,0.79244804,0.74855870,3.08152509,0.76169729,0.76404107,0.75403309,0.80044568,0.77490211,0.67124861,0.00059456,-0.00091061,0.22516565,0.46591526,-0.59760600,10.54752064,0.99935693,0.02828831,0.02202623,0.00062349,0.00059140,-0.00067693,0.00172189,0.00033954,0.00030230,0.00046056,23528348.00000000,-0.00000000,3146434217177513984.00000000,4283.56494141,-5849222089617178624.00000000,283340590244954112.00000000,-15326345216.00000000,0.00000000,73.03144836,-2594362831801417728.00000000,17729922081629812686597420333662208.00000000,0.00000000
0.10768194,-0.07657383,9.79187870,-0.00744958,0.00425690,-0.03937633,0.18414307,0.05587769,-0.45190430,0.00000000,-0.00000000,0.31000000,-0.00100000,0.00500000,0.02900000,0.99929637,-0.00020200,-0.00064738,-0.03750318,-0.00124804,0.00184900,-0.00044709,-0.25709939,0.33132294,-0.07897145,-0.00790497,0.00143617,-0.05225930,-0.01332040,0.04794654,-0.00552775,-0.00257014,0.00554296,-0.00131267,0.19151944,0.19067906,12.94935799,0.18266673,0.00000000,0.00000000,0.50000000,0.01229500,0.00000000,1.00000000,79.17621613,9.13333702,-98567536.00000000,0.00000000,-207667313611013683196565854544199680.00000000,159.00000000,0.76267463,0.71271318,3.37744522,0.72780561,0.73051226,0.71900898,0.77277303,0.74309736,0.62288749,0.00074882,-0.00110940,0.22520119,0.46477062,-0.59911633,10.56383610,0.99935806,0.02831599,0.02193823,0.00062160,0.00064385,-0.00073813,0.00190439,0.00036721,0.00032593,0.00049865,23528348.00000000,-0.00000000,3146434217177513984.00000000,4283.56494141,-5849222089617178624.00000000,283340590244954112.00000000,-15326345216.00000000,0.00000000,73.03144836,-2594362831801417728.00000000,17729922081629812686597420333662208.00000000,0.00000000
0.11246781,-0.07657383,9.81341457,-0.00638535,0.00319268,-0.04150478,0.18572998,0.05526733,-0.44818115,0.00000000,-0.00000000,0.31000000,-0.00100000,0.00500000,0.02900000,0.99931419,0.00026688,-0.00021593,-0.03702841,-0.00157864,0.00227769,-0.00055923,-0.25608140,0.33205816,-0.08686893,-0.00790497,0.00143617,-0.05225930,-0.01332040,0.04794654,-0.00552775,-0.00257014,0.00554296,-0.00131267,0.20395087,0.20330591,12.95006561,0.18232802,0.00000000,0.00000000,0.50000000,0.01358600,0.00000000,1.00000000,79.17828369,9.11640167,-98567536.00000000,0.00000000,-207667313611013683196565854544199680.00000000,159.00000000,0.73241431,0.67626691,3.67797899,0.69338709,0.69646555,0.68343663,0.74477756,0.71082437,0.57354897,0.00094718,-0.00136661,0.22525164,0.46336305,-0.60098207,10.58394814,0.99935949,0.02835018,0.02183027,0.00061929,0.00071163,-0.00081748,0.00214616,0.00040240,0.00035573,0.00054721,23528348.00000000,-0.00000000,3146434217177513984.00000000,4283.56494141,-5849222089617178624.00000000,283340590244954112.00000000,-15326345216.00000000,0.00000000,73.03144836,-2594362831801417728.00000000,17729922081629812686597420333662208.00000000,0.00000000
0.11246781,-0.07418089,9.79427147,-0.01064225,0.00212845,-0.04682591,0.18572998,0.05526733,-0.44818115,0.00000000,-0.00000000,0.31000000,-0.00100000,0.00500000,0.02900000,0.99932325,0.00051135,0.00000904,-0.03678066,-0.00175957,0.00251305,-0.00062365,-0.25554556,0.33243582,-0.09098650,-0.00790497,0.00143617,-0.05225930,-0.01332040,0.04794654,-0.00552775,-0.00257014,0.00554296,-0.00131267,0.21593776,0.21550244,12.95045471,0.18230692,0.00000000,0.00000000,0.50000000,0.01429400,0.00000000,1.00000000,79.17941284,9.11534691,-98567536.00000000,0.00000000,-207667313611013683196565854544199680.00000000,159.00000000,0.70202595,0.63963097,3.97963405,0.65884340,0.66229433,0.64773524,0.71676481,0.67845434,0.52386665,0.00105574,-0.00150783,0.22528063,0.46263123,-0.60195971,10.59444904,0.99936020,0.02836815,0.02177421,0.00061809,0.00074890,-0.00086116,0.00228051,0.00042154,0.00037187,0.00057366,23528348.00000000,-0.00000000,3146434217177513984.00000000,4283.56494141,-5849222089617178624.00000000,283340590244954112.00000000,-15326345216.00000000,0.00000000,73.03144836,-2594362831801417728.00000000,17729922081629812686597420333662208.00000000,0.00000000
0.11246781,-0.07418089,9.78948498,-0.01170648,0.00212845,-0.04256901,0.18572998,0.05526733,-0.44818115,0.00000000,-0.00000000,0.31000000,-0.00100000,0.00500000,0.02900000,0.99933517,0.00083879,0.00031040,-0.03644856,-0.00201439,0.00284598,-0.00072015,-0.25481957,0.33293220,-0.09650115,-0.00790497,0.00143617,-0.05225930,-0.01332040,0.04794654,-0.00552775,-0.00257014,0.00554296,-0.00131267,0.22747819,0.22728197,12.95100212,0.18256122,0.00000000,0.00000000,0.50000000,0.01529400,0.00000000,1.00000000,79.18100739,9.12805939,-98567536.00000000,0.00000000,-207667313611013683196565854544199680.00000000,159.00000000,0.67165238,0.60299075,4.28087139,0.62433690,0.62816352,0.61207652,0.68883210,0.64613587,0.47418714,0.00120863,-0.00170759,0.22532406,0.46165231,-0.60327464,10.60853672,0.99936110,0.02839235,0.02169932,0.00061649,0.00080157,-0.00092303,0.00247361,0.00044829,0.00039428,0.00061069,23528348.00000000,-0.00000000,3146434217177513984.00000000,4283.56494141,-5849222089617178624.00000000,283340590244954112.00000000,-15326345216.00000000,0.00000000,73.03144836,-2594362831801417728.00000000,17729922081629812686597420333662208.00000000,0.00000000
0.11964661,-0.08135969,9.81341457,-0.00744958,0.00319268,-0.03724788,0.18487549,0.05490112,-0.44738770,0.00000000,-0.00000000,0.31000000,-0.00100000,0.00500000,0.02900000,0.99934930,0.00123941,0.00067916,-0.03604181,-0.00234296,0.00327756,-0.00085376,-0.25391880,0.33352530,-0.10324840,-0.00790497,0.00143617,-0.05225930,-0.01332040,0.04794654,-0.00552775,-0.00257014,0.00554296,-0.00131267,0.23857079,0.23865628,12.95170975,0.18304621,0.00000000,0.00000000,0.50000000,0.01658800,0.00000000,1.00000000,79.18307495,9.15230942,-98567536.00000000,0.00000000,-207667313611013683196565854544199680.00000000,159.00000000,0.64132547,0.56638157,4.58142233,0.58989692,0.59410542,0.57649726,0.66097802,0.61388814,0.42461413,0.00140578,-0.00196654,0.22538419,0.46045402,-0.60488868,10.62581062,0.99936229,0.02842202,0.02160785,0.00061453,0.00086980,-0.00100337,0.00272876,0.00048243,0.00042267,0.00065809,23528348.00000000,-0.00000000,3146434217177513984.00000000,4283.56494141,-5849222089617178624.00000000,283340590244954112.00000000,-15326345216.00000000,0.00000000,73.03144836,-2594362831801417728.00000000,17729922081629812686597420333662208.00000000,0.00000000
0.09571729,-0.04546571,9.81820011,-0.00744958,0.00212845,-0.03831211,0.18487549,0.05490112,-0.44738770,0.00000000,-0.00000000,0.31000000,-0.00100000,0.00500000,0.02900000,0.99935645,0.00144574,0.00086911,-0.03583210,-0.00252215,0.00351358,-0.00092921,-0.25344843,0.33382335,-0.10672329,-0.00790497,0.00143617,-0.05225930,-0.01332040,0.04794654,-0.00552775,-0.00257014,0.00554296,-0.00131267,0.24926832,0.24964075,12.95209122,0.18374549,0.00000000,0.00000000,0.50000000,0.01729500,0.00000000,1.00000000,79.18418121,9.18727493,-98567536.00000000,0.00000000,-207667313611013683196565854544199680.00000000,159.00000000,0.61109865,0.52991366,4.88079739,0.55559456,0.56018603,0.54106742,0.63325942,0.58176970,0.37522790,0.00151329,-0.00210815,0.22541815,0.45983824,-0.60572416,10.63472366,0.99936289,0.02843741,0.02156088,0.00061353,0.00090717,-0.00104741,0.00286965,0.00050095,0.00043801,0.00068383,23528348.00000000,-0.00000000,3146434217177513984.00000000,4283.56494141,-5849222089617178624.00000000,283340590244954112.00000000,-15326345216.00000000,0.00000000,73.03144836,-2594362831801417728.00000000,17729922081629812686597420333662208.00000000,0.00000000
0.09811021,-0.04785864,9.80862904,-0.01064225,0.00319268,-0.04150478,0.18487549,0.05490112,-0.44738770,0.00000000,-0.00000000,0.31000000,-0.00100000,0.00500000,0.02900000,0.99936575,0.00172026,0.00112188,-0.03555273,-0.00277521,0.00384812,-0.00104067,-0.25281221,0.33420804,-0.11134644,-0.00790497,0.00143617,-0.05225930,-0.01332040,0.04794654,-0.00552775,-0.00257014,0.00554296,-0.00131267,0.25956681,0.26024556,12.95262527,0.18463431,0.00000000,0.00000000,0.50000000,0.01829600,0.00000000,1.00000000,79.18574524,9.23171616,-98567536.00000000,0.00000000,-207667313611013683196565854544199680.00000000,159.00000000,0.58110565,0.49386317,5.17739773,0.52161258,0.52658856,0.50597185,0.60584730,0.54995996,0.32624507,0.00166513,-0.00230887,0.22546831,0.45901927,-0.60684031,10.64660931,0.99936360,0.02845800,0.02149848,0.00061219,0.00096010,-0.00110992,0.00307194,0.00052694,0.00045941,0.00072001,23528348.00000000,-0.00000000,3146434217177513984.00000000,4283.56494141,-5849222089617178624.00000000,283340590244954112.00000000,-15326345216.00000000,0.00000000,73.03144836,-2594362831801417728.00000000,17729922081629812686597420333662208.00000000,0.00000000
0.11007488,-0.06700210,9.80384254,-0.00744958,0.00106423,-0.03724788,0.18377686,0.05447388,-0.45013428,0.00000000,-0.00000000,0.31000000,-0.00100000,0.00500000,0.02900000,0.99937671,0.00205170,0.00142714,-0.03521494,-0.00310033,0.00427983,-0.00119151,-0.25202888,0.33465537,-0.11692841,-0.00790497,0.00143617,-0.05225930,-0.01332040,0.04794654,-0.00552775,-0.00257014,0.00554296,-0.00131267,0.26946574,0.27048224,12.95330429,0.18568388,0.00000000,0.00000000,0.50000000,0.01958600,0.00000000,1.00000000,79.18772125,9.28419495,-98567536.00000000,0.00000000,-207667313611013683196565854544199680.00000000,159.00000000,0.55157638,0.45849609,5.46899080,0.48820019,0.49356043,0.47147515,0.57895446,0.51870006,0.27799615,0.00186020,-0.00256790,0.22553617,0.45802873,-0.60819256,10.66099834,0.99936450,0.02848290,0.02142316,0.00061058,0.00102838,-0.00119071,0.00333701,0.00056004,0.00048648,0.00076619,23528348.00000000,-0.00000000,3146434217177513984.00000000,4283.56494141,-5849222089617178624.00000000,283340590244954112.00000000,-15326345216.00000000,0.00000000,73.03144836,-2594362831801417728.00000000,17729922081629812686597420333662208.00000000,0.00000000
0.09811021,-0.07418089,9.78709221,-0.00851380,0.00212845,-0.04469746,0.18377686,0.05447388,-0.45013428,0.00000000,-0.00000000,0.31000000,-0.00100000,0.00500000,0.02900000,0.99938214,0.00222165,0.00158370,-0.03504147,-0.00327847,0.00451692,-0.00127632,-0.25161940,0.33487579,-0.11979044,-0.00790497,0.00143617,-0.05225930,-0.01332040,0.04794654,-0.00552775,-0.00257014,0.00554296,-0.00131267,0.27901518,0.28036818,12.95366859,0.18686573,0.00000000,0.00000000,0.50000000,0.02029400,0.00000000,1.00000000,79.18878174,9.34328651,-98567536.00000000,0.00000000,-207667313611013683196565854544199680.00000000,159.00000000,0.52270025,0.42396575,5.75378036,0.45556676,0.46129838,0.43779534,0.55272937,0.48817730,0.23078495,0.00196709,-0.00271015,0.22557433,0.45752159,-0.60888988,10.66839600,0.99936497,0.02849578,0.02138462,0.00060976,0.00106593,-0.00123517,0.00348372,0.00057810,0.00050120,0.00079141,23528348.00000000,-0.00000000,3146434217177513984.00000000,4283.56494141,-5849222089617178624.00000000,283340590244954112.00000000,-15326345216.00000000,0.00000000,73.03144836,-2594362831801417728.00000000,17729922081629812686597420333662208.00000000,0.00000000
0.10528901,-0.05264451,9.79187870,-0.00851380,0.00212845,-0.04150478,0.18377686,0.05447388,-0.45013428,0.00000000,-0.00000000,0.31000000,-0.00100000,0.00500000,0.02900000,0.99938935,0.00244547,0.00178993,-0.03481261,-0.00352979,0.00485240,-0.00140000,-0.25106782,0.33515206,-0.12355961,-0.00790497,0.00143617,-0.05225930,-0.01332040,0.04794654,-0.00552775,-0.00257014,0.00554296,-0.00131267,0.28820804,0.28991526,12.95417595,0.18815105,0.00000000,0.00000000,0.50000000,0.02129500,0.00000000,1.00000000,79.19026184,9.40755272,-98567536.00000000,0.00000000,-207667313611013683196565854544199680.00000000,159.00000000,0.49453238,0.39037234,6.03095436,0.42380565,0.42989150,0.40501899,0.52722180,0.45846993,0.18478334,0.00211788,-0.00291144,0.22562999,0.45685327,-0.60981244,10.67816734,0.99936557,0.02851283,0.02133386,0.00060867,0.00111904,-0.00129816,0.00369345,0.00060343,0.00052175,0.00082684,23528348.00000000,-0.00000000,3146434217177513984.00000000,4283.56494141,-5849222089617178624.00000000,283340590244954112.00000000,-15326345216.00000000,0.00000000,73.03144836,-2594362831801417728.00000000,17729922081629812686597420333662208.00000000,0.00000000
0.11964661,-0.07657383,9.78469944,-0.00532113,0.00212845,-0.03511943,0.18249512,0.05319214,-0.45349121,0.00000000,-0.00000000,0.31000000,-0.00100000,0.00500000,0.02900000,0.99939770,0.00271348,0.00203695,-0.03453800,-0.00385305,0.00528549,-0.00156534,-0.25038984,0.33546296,-0.12807314,-0.00790497,0.00143617,-0.05225930,-0.01332040,0.04794654,-0.00552775,-0.00257014,0.00554296,-0.00131267,0.29703751,0.29913422,12.95481586,0.18951488,0.00000000,0.00000000,0.50000000,0.02258600,0.00000000,1.00000000,79.19212341,9.47574234,-98567536.00000000,0.00000000,-207667313611013683196565854544199680.00000000,159.00000000,0.46710587,0.35774764,6.30037117,0.39293274,0.39935562,0.37316146,0.50242853,0.42958528,0.14003798,0.00231183,-0.00317129,0.22570440,0.45605057,-0.61092126,10.68991184,0.99936628,0.02853328,0.02127300,0.00060737,0.00118760,-0.00137958,0.00396748,0.00063579,0.00054784,0.00087219,23528348.00000000,-0.00000000,3146434217177513984.00000000,4283.56494141,-5849222089617178624.00000000,283340590244954112.00000000,-15326345216.00000000,0.00000000,73.03144836,-2594362831801417728.00000000,17729922081629812686597420333662208.00000000,0.00000000
0.12443247,-0.06221624,9.80144978,-0.00851380,0.00212845,-0.04363323,0.18249512,0.05319214,-0.45349121,0.00000000,-0.00000000,0.31000000,-0.00100000,0.00500000,0.02900000,0.99940181,0.00284967,0.00216250,-0.03439814,-0.00403032,0.00552344,-0.00165777,-0.25003606,0.33561036,-0.13036662,-0.00790497,0.00143617,-0.05225930,-0.01332040,0.04794654,-0.00552775,-0.00257014,0.00554296,-0.00131267,0.30554610,0.30803943,12.95515728,0.19095935,0.00000000,0.00000000,0.50000000,0.02329500,0.00000000,1.00000000,79.19312286,9.54796791,-98567536.00000000,0.00000000,-207667313611013683196565854544199680.00000000,159.00000000,0.44050115,0.32607841,6.56183720,0.36297035,0.36971197,0.34224233,0.47836620,0.40154025,0.09656805,0.00241819,-0.00331406,0.22574599,0.45564294,-0.61148834,10.69590092,0.99936664,0.02854376,0.02124209,0.00060671,0.00122530,-0.00142440,0.00411897,0.00065348,0.00056206,0.00089699,23528348.00000000,-0.00000000,3146434217177513984.00000000,4283.56494141,-5849222089617178624.00000000,283340590244954112.00000000,-15326345216.00000000,0.00000000,73.03144836,-2594362831801417728.00000000,17729922081629812686597420333662208.00000000,0.00000000
0.09811021,-0.04785864,9.81102180,-0.00851380,0.00106423,-0.03937633,0.18249512,0.05319214,-0.45349121,0.00000000,-0.00000000,0.31000000,-0.00100000,0.00500000,0.02900000,0.99940723,0.00302657,0.00232564,-0.03421602,-0.00427964,0.00585889,-0.00179099,-0.24956220,0.33578548,-0.13334569,-0.00790497,0.00143617,-0.05225930,-0.01332040,0.04794654,-0.00552775,-0.00257014,0.00554296,-0.00131267,0.31372941,0.31664151,12.95562935,0.19249299,0.00000000,0.00000000,0.50000000,0.02429400,0.00000000,1.00000000,79.19449615,9.62465096,-98567536.00000000,0.00000000,-207667313611013683196565854544199680.00000000,159.00000000,0.41478994,0.29545236,6.81473541,0.33398679,0.34103304,0.31232470,0.45510390,0.37440646,0.05445586,0.00256778,-0.00351533,0.22580594,0.45511240,-0.61222911,10.70371342,0.99936712,0.02855747,0.02120188,0.00060586,0.00127846,-0.00148765,0.00433425,0.00067824,0.00058188,0.00093176,23528348.00000000,-0.00000000,3146434217177513984.00000000,4283.56494141,-5849222089617178624.00000000,283340590244954112.00000000,-15326345216.00000000,0.00000000,73.03144836,-2594362831801417728.00000000,17729922081629812686597420333662208.00000000,0.00000000
0.10768194,-0.05503744,9.81341457,-0.00744958,0.00212845,-0.03831211,0.18286133,0.05447388,-0.45324707,0.00000000,-0.00000000,0.31000000,-0.00100000,0.00500000,0.02900000,0.99941349,0.00323669,0.00251946,-0.03399910,-0.00460132,0.00629296,-0.00196784,-0.24897918,0.33597055,-0.13688417,-0.00790497,0.00143617,-0.05225930,-0.01332040,0.04794654,-0.00552775,-0.00257014,0.00554296,-0.00131267,0.32158509,0.32495141,12.95622063,0.19408444,0.00000000,0.00000000,0.50000000,0.02558600,0.00000000,1.00000000,79.19622040,9.70422363,-98567536.00000000,0.00000000,-207667313611013683196565854544199680.00000000,159.00000000,0.39003050,0.26601768,7.05819750,0.30608562,0.31342167,0.28352514,0.43273169,0.34828609,0.01384097,0.00276079,-0.00377578,0.22588553,0.45447919,-0.61311299,10.71304035,0.99936765,0.02857379,0.02115397,0.00060483,0.00134725,-0.00156961,0.00461547,0.00071003,0.00060720,0.00097644,23528348.00000000,-0.00000000,3146434217177513984.00000000,4283.56494141,-5849222089617178624.00000000,283340590244954112.00000000,-15326345216.00000000,0.00000000,73.03144836,-2594362831801417728.00000000,17729922081629812686597420333662208.00000000,0.00000000
0.11246781,-0.06460917,9.81102180,-0.00851380,0.00319268,-0.04682591,0.18286133,0.05447388,-0.45324707,0.00000000,-0.00000000,0.31000000,-0.00100000,0.00500000,0.02900000,0.99941659,0.00334218,0.00261681,-0.03388984,-0.00477763,0.00653122,-0.00206615,-0.24867564,0.33605117,-0.13866058,-0.00790497,0.00143617,-0.05225930,-0.01332040,0.04794654,-0.00552775,-0.00257014,0.00554296,-0.00131267,0.32915348,0.33298150,12.95653915,0.19571495,0.00000000,0.00000000,0.50000000,0.02629500,0.00000000,1.00000000,79.19715118,9.78574562,-98567536.00000000,0.00000000,-207667313611013683196565854544199680.00000000,159.00000000,0.36630112,0.23784876,7.29155684,0.27935010,0.28695983,0.25593144,0.41130939,0.32325619,-0.02515050,0.00286658,-0.00391873,0.22592975,0.45416099,-0.61356050,10.71774673,0.99936789,0.02858209,0.02112988,0.00060432,0.00138505,-0.00161466,0.00477056,0.00072740,0.00062101,0.00100089,23528348.00000000,-0.00000000,3146434217177513984.00000000,4283.56494141,-5849222089617178624.00000000,283340590244954112.00000000,-15326345216.00000000,0.00000000,73.03144836,-2594362831801417728.00000000,17729922081629812686597420333662208.00000000,0.00000000
0.09811021,-0.05025157,9.81341457,-0.00744958,0.00319268,-0.04044056,0.18286133,0.05447388,-0.45324707,0.00000000,-0.00000000,0.31000000,-0.00100000,0.00500000,0.02900000,0.99942058,0.00347774,0.00274194,-0.03374892,-0.00502590,0.00686736,-0.00220709,-0.24826908,0.33613607,-0.14094317,-0.00790497,0.00143617,-0.05225930,-0.01332040,0.04794654,-0.00552775,-0.00257014,0.00554296,-0.00131267,0.33643022,0.34073904,12.95697021,0.19738206,0.00000000,0.00000000,0.50000000,0.02729500,0.00000000,1.00000000,79.19841003,9.86910248,-98567536.00000000,0.00000000,-207667313611013683196565854544199680.00000000,159.00000000,0.34361672,0.21097338,7.51462078,0.25380424,0.26167491,0.22955927,0.39084694,0.29933843,-0.06245907,0.00301554,-0.00412041,0.22599319,0.45375070,-0.61413991,10.72383213,0.99936831,0.02859283,0.02109882,0.00060366,0.00143837,-0.00167828,0.00499073,0.00075179,0.00064032,0.00103522,23528348.00000000,-0.00000000,3146434217177513984.00000000,4283.56494141,-5849222089617178624.00000000,283340590244954112.00000000,-15326345216.00000000,0.00000000,73.03144836,-2594362831801417728.00000000,17729922081629812686597420333662208.00000000,0.00000000
0.10289608,-0.05503744,9.80623627,-0.00532113,0.00000000,-0.03831211,0.18347168,0.05532837,-0.44982910,0.00000000,-0.00000000,0.31000000,-0.00100000,0.00500000,0.02900000,0.99942511,0.00363645,0.00288852,-0.03358323,-0.00534577,0.00730140,-0.00239250,-0.24777015,0.33620957,-0.14361532,-0.00790497,0.00143617,-0.05225930,-0.01332040,0.04794654,-0.00552775,-0.00257014,0.00554296,-0.00131267,0.34341139,0.34823290,12.95750904,0.19905815,0.00000000,0.00000000,0.50000000,0.02858600,0.00000000,1.00000000,79.19998169,9.95290756,-98567536.00000000,0.00000000,-207667313611013683196565854544199680.00000000,159.00000000,0.32192239,0.18540134,7.72751570,0.22943577,0.23754930,0.20439884,0.37132776,0.27651918,-0.09808293,0.00320746,-0.00438084,0.22607660,0.45326692,-0.61482328,10.73100758,0.99936873,0.02860550,0.02106224,0.00060288,0.00150725,-0.00176053,0.00527709,0.00078309,0.00066501,0.00107934,23528348.00000000,-0.00000000,3146434217177513984.00000000,4283.56494141,-5849222089617178624.00000000,283340590244954112.00000000,-15326345216.00000000,0.00000000,73.03144836,-2594362831801417728.00000000,17729922081629812686597420333662208.00000000,0.00000000
0.11246781,-0.05982330,9.81102180,-0.00957803,0.00425690,-0.04363323,0.18347168,0.05532837,-0.44982910,0.00000000,-0.00000000,0.31000000,-0.00100000,0.00500000,0.02900000,0.99942738,0.00371509,0.00296118,-0.03350073,-0.00552125,0.00753979,-0.00249526,-0.24751037,0.33623177,-0.14493909,-0.00790497,0.00143617,-0.05225930,-0.01332040,0.04794654,-0.00552775,-0.00257014,0.00554296,-0.00131267,0.35013142,0.35547462,12.95779800,0.20074135,0.00000000,0.00000000,0.50000000,0.02929500,0.00000000,1.00000000,79.20082092,10.07413483,-98567536.00000000,0.00000000,-207667313611013683196565854544199680.00000000,159.00000000,0.30121326,0.16110002,7.93033981,0.20622990,0.21456805,0.18043381,0.35274374,0.25478867,-0.13203217,0.00331275,-0.00452387,0.22612287,0.45302674,-0.61516595,10.73459053,0.99936891,0.02861189,0.02104406,0.00060249,0.00154511,-0.00180577,0.00543494,0.00080023,0.00067851,0.00110351,23528348.00000000,-0.00000000,3146434217177513984.00000000,4283.56494141,-5849222089617178624.00000000,283340590244954112.00000000,-15326345216.00000000,0.00000000,73.03144836,-2594362831801417728.00000000,17729922081629812686597420333662208.00000000,0.00000000
0.11246781,-0.06460917,9.80384254,-0.00851380,0.00319268,-0.03831211,0.18347168,0.05532837,-0.44982910,0.00000000,-0.00000000,0.31000000,-0.00100000,0.00500000,0.02900000,0.99943030,0.00381460,0.00305317,-0.03339576,-0.00576842,0.00787603,-0.00264188,-0.24716263,0.33623835,-0.14661367,-0.00790497,0.00143617,-0.05225930,-0.01332040,0.04794654,-0.00552775,-0.00257014,0.00554296,-0.00131267,0.35658991,0.36247000,12.95818710,0.20244244,0.00000000,0.00000000,0.50000000,0.03029500,0.00000000,1.00000000,79.20195007,10.24424362,-98567536.00000000,0.00000000,-207667313611013683196565854544199680.00000000,159.00000000,0.28153780,0.13803525,8.12298393,0.18418941,0.19274703,0.15766604,0.33510792,0.23415811,-0.16429856,0.00346105,-0.00472562,0.22618882,0.45272115,-0.61560476,10.73916531,0.99936914,0.02862009,0.02102092,0.00060200,0.00159853,-0.00186962,0.00565862,0.00082432,0.00069742,0.00113749,23528348.00000000,-0.00000000,3146434217177513984.00000000,4283.56494141,-5849222089617178624.00000000,283340590244954112.00000000,-15326345216.00000000,0.00000000,73.03144836,-2594362831801417728.00000000,17729922081629812686597420333662208.00000000,0.00000000
0.12203954,-0.05264451,9.79905701,-0.00851380,0.00319268,-0.04256901,0.18499756,0.05661011,-0.44793701,0.00000000,-0.00000000,0.31000000,-0.00100000,0.00500000,0.02900000,0.99943358,0.00392921,0.00315921,-0.03327405,-0.00608720,0.00831042,-0.00283379,-0.24673562,0.33621606,-0.14854194,-0.00790497,0.00143617,-0.05225930,-0.01332040,0.04794654,-0.00552775,-0.00257014,0.00554296,-0.00131267,0.36278796,0.36922431,12.95867443,0.20414102,0.00000000,0.00000000,0.50000000,0.03158700,0.00000000,1.00000000,79.20337677,10.41410160,-98567536.00000000,0.00000000,-207667313611013683196565854544199680.00000000,159.00000000,0.26294661,0.11622436,8.30521774,0.16333742,0.17210993,0.13612600,0.31844255,0.21465075,-0.19485196,0.00365232,-0.00498625,0.22627519,0.45236585,-0.61611640,10.74449253,0.99936944,0.02862967,0.02099401,0.00060143,0.00166756,-0.00195221,0.00594918,0.00085531,0.00072169,0.00118124,23528348.00000000,-0.00000000,3146434217177513984.00000000,4283.56494141,-5849222089617178624.00000000,283340590244954112.00000000,-15326345216.00000000,0.00000000,73.03144836,-2594362831801417728.00000000,17729922081629812686597420333662208.00000000,0.00000000
0.11725368,-0.05503744,9.79905701,-0.00957803,0.00319268,-0.04682591,0.18499756,0.05661011,-0.44793701,0.00000000,-0.00000000,0.31000000,-0.00100000,0.00500000,0.02900000,0.99943519,0.00398489,0.00321077,-0.03321446,-0.00626198,0.00854878,-0.00293977,-0.24651329,0.33618850,-0.14947842,-0.00790497,0.00143617,-0.05225930,-0.01332040,0.04794654,-0.00552775,-0.00257014,0.00554296,-0.00131267,0.36875746,0.37574551,12.95893002,0.20583424,0.00000000,0.00000000,0.50000000,0.03229600,0.00000000,1.00000000,79.20411682,10.58342361,-98567536.00000000,0.00000000,-207667313611013683196565854544199680.00000000,159.00000000,0.24546847,0.09570265,8.47693443,0.14368564,0.15266429,0.11582206,0.30275667,0.19627813,-0.22366682,0.00375719,-0.00512927,0.22632289,0.45219234,-0.61636955,10.74711227,0.99936956,0.02863445,0.02098084,0.00060115,0.00170547,-0.00199758,0.00610904,0.00087228,0.00073496,0.00120521,23528348.00000000,-0.00000000,3146434217177513984.00000000,4283.56494141,-5849222089617178624.00000000,283340590244954112.00000000,-15326345216.00000000,0.00000000,73.03144836,-2594362831801417728.00000000,17729922081629812686597420333662208.00000000,0.00000000
0.11007488,-0.05503744,9.78230667,-0.00744958,0.00212845,-0.03511943,0.18499756,0.05661011,-0.44793701,0.00000000,-0.00000000,0.31000000,-0.00100000,0.00500000,0.02900000,0.99943715,0.00405379,0.00327464,-0.03314002,-0.00650795,0.00888457,-0.00309026,-0.24621558,0.33612904,-0.15063687,-0.00790497,0.00143617,-0.05225930,-0.01332040,0.04794654,-0.00552775,-0.00257014,0.00554296,-0.00131267,0.37449911,0.38204038,12.95927906,0.20750690,0.00000000,0.00000000,0.50000000,0.03329500,0.00000000,1.00000000,79.20513916,10.75068951,-98567536.00000000,0.00000000,-207667313611013683196565854544199680.00000000,159.00000000,0.22907782,0.07646132,8.63826370,0.12521611,0.13439305,0.09673995,0.28803322,0.17902415,-0.25075388,0.00390477,-0.00533074,0.22639062,0.45197549,-0.61668915,10.75040436,0.99936974,0.02864052,0.02096437,0.00060081,0.00175889,-0.00206153,0.00633503,0.00089614,0.00075357,0.00123890,23528348.00000000,-0.00000000,3146434217177513984.00000000,4283.56494141,-5849222089617178624.00000000,283340590244954112.00000000,-15326345216.00000000,0.00000000,73.03144836,-2594362831801417728.00000000,17729922081629812686597420333662208.00000000,0.00000000
0.12682541,-0.07178796,9.79187870,-0.00744958,0.00319268,-0.04363323,0.17889404,0.05795288,-0.45068359,0.00000000,-0.00000000,0.31000000,-0.00100000,0.00500000,0.02900000,0.99943942,0.00413132,0.00334659,-0.03305531,-0.00682558,0.00931872,-0.00328656,-0.24584906,0.33602685,-0.15193981,-0.00790497,0.00143617,-0.05225930,-0.01332040,0.04794654,-0.00552775,-0.00257014,0.00554296,-0.00131267,0.38001385,0.38811579,12.95971394,0.20912685,0.00000000,0.00000000,0.50000000,0.03458700,0.00000000,1.00000000,79.20640564,10.91268444,-98567536.00000000,0.00000000,-207667313611013683196565854544199680.00000000,159.00000000,0.21374007,0.05843811,8.78949165,0.10789543,0.11726105,0.07885245,0.27423292,0.16285604,-0.27616072,0.00409535,-0.00559123,0.22647893,0.45172790,-0.61705691,10.75417519,0.99936998,0.02864754,0.02094554,0.00060042,0.00182800,-0.00214431,0.00662838,0.00092690,0.00077752,0.00128237,23528348.00000000,-0.00000000,3146434217177513984.00000000,4283.56494141,-5849222089617178624.00000000,283340590244954112.00000000,-15326345216.00000000,0.00000000,73.03144836,-2594362831801417728.00000000,17729922081629812686597420333662208.00000000,0.00000000
0.12682541,-0.07178796,9.81102180,-0.00851380,0.00319268,-0.04469746,0.17889404,0.05795288,-0.45068359,0.00000000,-0.00000000,0.31000000,-0.00100000,0.00500000,0.02900000,0.99944049,0.00416786,0.00338057,-0.03301482,-0.00699951,0.00955657,-0.00339457,-0.24565804,0.33595827,-0.15255371,-0.00790497,0.00143617,-0.05225930,-0.01332040,0.04794654,-0.00552775,-0.00257014,0.00554296,-0.00131267,0.38532808,0.39397842,12.95994186,0.21072291,0.00000000,0.00000000,0.50000000,0.03529500,0.00000000,1.00000000,79.20706940,11.07229042,-98567536.00000000,0.00000000,-207667313611013683196565854544199680.00000000,159.00000000,0.19945170,0.04155765,8.93095493,0.09168831,0.10123471,0.06210666,0.26131463,0.14774349,-0.29994550,0.00419970,-0.00573394,0.22652754,0.45160982,-0.61723566,10.75599289,0.99937004,0.02865100,0.02093652,0.00060023,0.00186588,-0.00218970,0.00678942,0.00094373,0.00079062,0.00130616,23528348.00000000,-0.00000000,3146434217177513984.00000000,4283.56494141,-5849222089617178624.00000000,283340590244954112.00000000,-15326345216.00000000,0.00000000,73.03144836,-2594362831801417728.00000000,17729922081629812686597420333662208.00000000,0.00000000
0.12921834,-0.06221624,9.79187870,-0.00532113,0.00319268,-0.03724788,0.17889404,0.05795288,-0.45068359,0.00000000,-0.00000000,0.31000000,-0.00100000,0.00500000,0.02900000,0.99944180,0.00421164,0.00342137,-0.03296545,-0.00724491,0.00989242,-0.00354786,-0.24540092,0.33584464,-0.15328893,-0.00790497,0.00143617,-0.05225930,-0.01332040,0.04794654,-0.00552775,-0.00257014,0.00554296,-0.00131267,0.39044136,0.39963388,12.96025276,0.21230906,0.00000000,0.00000000,0.50000000,0.03629500,0.00000000,1.00000000,79.20797729,11.23090553,-98567536.00000000,0.00000000,-207667313611013683196565854544199680.00000000,159.00000000,0.18620004,0.02578899,9.06288910,0.07657284,0.08628944,0.04647401,0.24925570,0.13366435,-0.32215157,0.00434695,-0.00593545,0.22659652,0.45146555,-0.61745799,10.75823116,0.99937016,0.02865535,0.02092548,0.00060000,0.00191940,-0.00225384,0.00701735,0.00096747,0.00080906,0.00133971,23528348.00000000,-0.00000000,3146434217177513984.00000000,4283.56494141,-5849222089617178624.00000000,283340590244954112.00000000,-15326345216.00000000,0.00000000,73.03144836,-2594362831801417728.00000000,17729922081629812686597420333662208.00000000,0.00000000
0.12443247,-0.05503744,9.81102180,-0.00744958,0.00425690,-0.04363323,0.18280029,0.05331421,-0.45147705,0.00000000,-0.00000000,0.31000000,-0.00100000,0.00500000,0.02900000,0.99944323,0.00425878,0.00346543,-0.03291108,-0.00756131,0.01032578,-0.00374678,-0.24508393,0.33567759,-0.15407997,-0.00790497,0.00143617,-0.05225930,-0.01332040,0.04794654,-0.00552775,-0.00257014,0.00554296,-0.00131267,0.39535174,0.40508777,12.96063995,0.21384861,0.00000000,0.00000000,0.50000000,0.03758600,0.00000000,1.00000000,79.20910645,11.38486004,-98567536.00000000,0.00000000,-207667313611013683196565854544199680.00000000,159.00000000,0.17395906,0.01113746,9.18544674,0.06253665,0.07240692,0.03195060,0.23804627,0.12059475,-0.34281006,0.00453679,-0.00619547,0.22668606,0.45130578,-0.61770815,10.76072788,0.99937028,0.02866030,0.02091322,0.00059976,0.00198849,-0.00233668,0.00731229,0.00099806,0.00083279,0.00138296,23528348.00000000,-0.00000000,3146434217177513984.00000000,4283.56494141,-5849222089617178624.00000000,283340590244954112.00000000,-15326345216.00000000,0.00000000,73.03144836,-2594362831801417728.00000000,17729922081629812686597420333662208.00000000,0.00000000
0.12443247,-0.06939503,9.81341457,-0.00638535,0.00212845,-0.04044056,0.18280029,0.05331421,-0.45147705,0.00000000,-0.00000000,0.31000000,-0.00100000,0.00500000,0.02900000,0.99944389,0.00427990,0.00348525,-0.03288599,-0.00773496,0.01056370,-0.00385627,-0.24491765,0.33557582,-0.15443403,-0.00790497,0.00143617,-0.05225930,-0.01332040,0.04794654,-0.00552775,-0.00257014,0.00554296,-0.00131267,0.40007687,0.41034624,12.96084499,0.21532819,0.00000000,0.00000000,0.50000000,0.03829500,0.00000000,1.00000000,79.20970154,11.53281784,-98567536.00000000,0.00000000,-207667313611013683196565854544199680.00000000,159.00000000,0.16270080,-0.00242592,9.29887772,0.04955576,0.05956309,0.01851133,0.22767121,0.10850091,-0.36195678,0.00464098,-0.00633822,0.22673532,0.45123196,-0.61782748,10.76189804,0.99937028,0.02866272,0.02090753,0.00059964,0.00202645,-0.00238220,0.00747444,0.00101485,0.00084581,0.00140670,23528348.00000000,-0.00000000,3146434217177513984.00000000,4283.56494141,-5849222089617178624.00000000,283340590244954112.00000000,-15326345216.00000000,0.00000000,73.03144836,-2594362831801417728.00000000,17729922081629812686597420333662208.00000000,0.00000000
0.11007488,-0.06460917,9.80144978,-0.00638535,0.00106423,-0.04150478,0.18280029,0.05331421,-0.45147705,0.00000000,-0.00000000,0.31000000,-0.00100000,0.00500000,0.02900000,0.99944466,0.00430350,0.00350750,-0.03285680,-0.00797965,0.01089912,-0.00401110,-0.24469315,0.33541906,-0.15482879,-0.00790497,0.00143617,-0.05225930,-0.01332040,0.04794654,-0.00552775,-0.00257014,0.00554296,-0.00131267,0.40461501,0.41541690,12.96112251,0.21675552,0.00000000,0.00000000,0.50000000,0.03929500,0.00000000,1.00000000,79.21051025,11.67555237,-98567536.00000000,0.00000000,-207667313611013683196565854544199680.00000000,159.00000000,0.15237372,-0.01495911,9.40352917,0.03759283,0.04771783,0.00611812,0.21810187,0.09734377,-0.37963986,0.00478779,-0.00653947,0.22680499,0.45114565,-0.61797172,10.76328850,0.99937034,0.02866570,0.02090083,0.00059951,0.00207998,-0.00244640,0.00770342,0.00103851,0.00086414,0.00144014,23528348.00000000,-0.00000000,3146434217177513984.00000000,4283.56494141,-5849222089617178624.00000000,283340590244954112.00000000,-15326345216.00000000,0.00000000,73.03144836,-2594362831801417728.00000000,17729922081629812686597420333662208.00000000,0.00000000
0.11964661,-0.04785864,9.79905701,-0.00744958,0.00212845,-0.04682591,0.18182373,0.05337524,-0.45373535,0.00000000,-0.00000000,0.31000000,-0.00100000,0.00500000,0.02900000,0.99944550,0.00432666,0.00352951,-0.03282643,-0.00829568,0.01133254,-0.00421179,-0.24441467,0.33520067,-0.15521485,-0.00790497,0.00143617,-0.05225930,-0.01332040,0.04794654,-0.00552775,-0.00257014,0.00554296,-0.00131267,0.40896621,0.42030817,12.96146774,0.21814372,0.00000000,0.00000000,0.50000000,0.04058800,0.00000000,1.00000000,79.21151733,11.81437111,-98567536.00000000,0.00000000,-207667313611013683196565854544199680.00000000,159.00000000,0.14291291,-0.02647487,9.49976349,0.02660151,0.03682480,-0.00528203,0.20930372,0.08708006,-0.39592165,0.00497741,-0.00679952,0.22689530,0.45105493,-0.61812979,10.76477528,0.99937040,0.02866907,0.02089374,0.00059938,0.00214920,-0.00252944,0.00799986,0.00106908,0.00088780,0.00148335,23528348.00000000,-0.00000000,3146434217177513984.00000000,4283.56494141,-5849222089617178624.00000000,283340590244954112.00000000,-15326345216.00000000,0.00000000,73.03144836,-2594362831801417728.00000000,17729922081629812686597420333662208.00000000,0.00000000
0.12443247,-0.05025157,9.78709221,-0.00744958,0.00106423,-0.03937633,0.18182373,0.05337524,-0.45373535,0.00000000,-0.00000000,0.31000000,-0.00100000,0.00500000,0.02900000,0.99944586,0.00433564,0.00353815,-0.03281350,-0.00846862,0.01156977,-0.00432179,-0.24426824,0.33507338,-0.15536384,-0.00790497,0.00143617,-0.05225930,-0.01332040,0.04794654,-0.00552775,-0.00257014,0.00554296,-0.00131267,0.41314721,0.42502820,12.96164894,0.21949092,0.00000000,0.00000000,0.50000000,0.04129600,0.00000000,1.00000000,79.21204376,11.94909096,-98567536.00000000,0.00000000,-207667313611013683196565854544199680.00000000,159.00000000,0.13428009,-0.03696791,9.58793163,0.01653378,0.02684044,-0.01574101,0.20124580,0.07766587,-0.41086927,0.00508117,-0.00694186,0.22694480,0.45101604,-0.61820233,10.76543427,0.99937040,0.02867068,0.02089066,0.00059933,0.00218711,-0.00257492,0.00816227,0.00108581,0.00090074,0.00150700,23528348.00000000,-0.00000000,3146434217177513984.00000000,4283.56494141,-5849222089617178624.00000000,283340590244954112.00000000,-15326345216.00000000,0.00000000,73.03144836,-2594362831801417728.00000000,17729922081629812686597420333662208.00000000,0.00000000
0.10528901,-0.06221624,9.81102180,-0.00744958,0.00000000,-0.03618366,0.18182373,0.05337524,-0.45373535,0.00000000,-0.00000000,0.31000000,-0.00100000,0.00500000,0.02900000,0.99944621,0.00434357,0.00354598,-0.03280003,-0.00871245,0.01190432,-0.00447713,-0.24406938,0.33488393,-0.15549377,-0.00790497,0.00143617,-0.05225930,-0.01332040,0.04794654,-0.00552775,-0.00257014,0.00554296,-0.00131267,0.41716048,0.42958665,12.96189594,0.22077450,0.00000000,0.00000000,0.50000000,0.04229500,0.00000000,1.00000000,79.21276855,12.07744980,-98567536.00000000,0.00000000,-207667313611013683196565854544199680.00000000,159.00000000,0.12642242,-0.04649187,9.66836071,0.00735001,0.01772215,-0.02528265,0.19389996,0.06906501,-0.42454126,0.00522747,-0.00714259,0.22701471,0.45097491,-0.61828685,10.76616287,0.99937040,0.02867266,0.02088734,0.00059927,0.00224059,-0.00263910,0.00839154,0.00110942,0.00091900,0.00154035,23528348.00000000,-0.00000000,3146434217177513984.00000000,4283.56494141,-5849222089617178624.00000000,283340590244954112.00000000,-15326345216.00000000,0.00000000,73.03144836,-2594362831801417728.00000000,17729922081629812686597420333662208.00000000,0.00000000
0.11007488,-0.05025157,9.81820011,-0.00851380,0.00532113,-0.04044056,0.18267822,0.05563354,-0.45269775,0.00000000,-0.00000000,0.31000000,-0.00100000,0.00500000,0.02900000,0.99944657,0.00434825,0.00355094,-0.03278820,-0.00902722,0.01233632,-0.00467797,-0.24382158,0.33462766,-0.15556741,-0.00790497,0.00143617,-0.05225930,-0.01332040,0.04794654,-0.00552775,-0.00257014,0.00554296,-0.00131267,0.42100999,0.43399203,12.96220207,0.22197504,0.00000000,0.00000000,0.50000000,0.04358600,0.00000000,1.00000000,79.21365356,12.19750404,-98567536.00000000,0.00000000,-207667313611013683196565854544199680.00000000,159.00000000,0.11926829,-0.05510918,9.74139404,-0.00098570,0.00943734,-0.03393401,0.18723689,0.06125043,-0.43698776,0.00541633,-0.00740179,0.22710507,0.45093793,-0.61837500,10.76686954,0.99937046,0.02867486,0.02088426,0.00059923,0.00230971,-0.00272204,0.00868796,0.00113992,0.00094258,0.00158344,23528348.00000000,-0.00000000,3146434217177513984.00000000,4283.56494141,-5849222089617178624.00000000,283340590244954112.00000000,-15326345216.00000000,0.00000000,73.03144836,-2594362831801417728.00000000,17729922081629812686597420333662208.00000000,0.00000000
0.11486074,-0.06939503,9.79666424,-0.00638535,0.00425690,-0.03937633,0.18267822,0.05563354,-0.45269775,0.00000000,-0.00000000,0.31000000,-0.00100000,0.00500000,0.02900000,0.99944669,0.00434805,0.00355112,-0.03278447,-0.00920000,0.01257347,-0.00478826,-0.24369010,0.33448133,-0.15556110,-0.00790497,0.00143617,-0.05225930,-0.01332040,0.04794654,-0.00552775,-0.00257014,0.00554296,-0.00131267,0.42470974,0.43824801,12.96236324,0.22308847,0.00000000,0.00000000,0.50000000,0.04429500,0.00000000,1.00000000,79.21412659,12.30884743,-98567536.00000000,0.00000000,-207667313611013683196565854544199680.00000000,159.00000000,0.11279483,-0.06286503,9.80735779,-0.00851019,0.00196020,-0.04173880,0.18122348,0.05419616,-0.44825920,0.00552000,-0.00754408,0.22715472,0.45092583,-0.61841333,10.76714039,0.99937046,0.02867591,0.02088317,0.00059922,0.00234766,-0.00276760,0.00885077,0.00115667,0.00095553,0.00160711,23528348.00000000,-0.00000000,3146434217177513984.00000000,4283.56494141,-5849222089617178624.00000000,283340590244954112.00000000,-15326345216.00000000,0.00000000,73.03144836,-2594362831801417728.00000000,17729922081629812686597420333662208.00000000,0.00000000
0.09571729,-0.06700210,9.77752113,-0.00851380,0.00319268,-0.04044056,0.18267822,0.05563354,-0.45269775,0.00000000,-0.00000000,0.31000000,-0.00100000,0.00500000,0.02900000,0.99944681,0.00434428,0.00354814,-0.03278271,-0.00944351,0.01290774,-0.00494375,-0.24351059,0.33426791,-0.15549304,-0.00790497,0.00143617,-0.05225930,-0.01332040,0.04794654,-0.00552775,-0.00257014,0.00554296,-0.00131267,0.42826304,0.44235700,12.96258450,0.22413102,0.00000000,0.00000000,0.50000000,0.04529500,0.00000000,1.00000000,79.21477509,12.41310120,-98567536.00000000,0.00000000,-207667313611013683196565854544199680.00000000,159.00000000,0.10696968,-0.06982999,9.86655235,-0.01526454,-0.00474809,-0.04873906,0.17582411,0.04786653,-0.45841199,0.00566610,-0.00774464,0.22722468,0.45091924,-0.61845446,10.76737499,0.99937040,0.02867719,0.02088241,0.00059923,0.00240119,-0.00283185,0.00908040,0.00118030,0.00097380,0.00164048,23528348.00000000,-0.00000000,3146434217177513984.00000000,4283.56494141,-5849222089617178624.00000000,283340590244954112.00000000,-15326345216.00000000,0.00000000,73.03144836,-2594362831801417728.00000000,17729922081629812686597420333662208.00000000,0.00000000
0.10768194,-0.07178796,9.76555634,-0.00851380,0.00425690,-0.04256901,0.18585205,0.05508423,-0.44860840,0.00000000,-0.00000000,0.31000000,-0.00100000,0.00500000,0.02900000,0.99944681,0.00433538,0.00354058,-0.03278447,-0.00975759,0.01333891,-0.00514429,-0.24328585,0.33398440,-0.15533705,-0.00790497,0.00143617,-0.05225930,-0.01332040,0.04794654,-0.00552775,-0.00257014,0.00554296,-0.00131267,0.43167549,0.44632185,12.96286011,0.22510354,0.00000000,0.00000000,0.50000000,0.04658600,0.00000000,1.00000000,79.21557617,12.51035404,-98567536.00000000,0.00000000,-207667313611013683196565854544199680.00000000,159.00000000,0.10172646,-0.07607165,9.91931725,-0.02129680,-0.01073247,-0.05498196,0.17100854,0.04221844,-0.46750188,0.00585455,-0.00800335,0.22731493,0.45092300,-0.61849272,10.76750755,0.99937034,0.02867861,0.02088232,0.00059925,0.00247029,-0.00291479,0.00937680,0.00121083,0.00099739,0.00168356,23528348.00000000,-0.00000000,3146434217177513984.00000000,4283.56494141,-5849222089617178624.00000000,283340590244954112.00000000,-15326345216.00000000,0.00000000,73.03144836,-2594362831801417728.00000000,17729922081629812686597420333662208.00000000,0.00000000
0.11964661,-0.07178796,9.80862904,-0.00744958,0.00106423,-0.03511943,0.18585205,0.05508423,-0.44860840,0.00000000,-0.00000000,0.31000000,-0.00100000,0.00500000,0.02900000,0.99944675,0.00432852,0.00353462,-0.03278740,-0.00992999,0.01357559,-0.00525434,-0.24316585,0.33382478,-0.15521824,-0.00790497,0.00143617,-0.05225930,-0.01332040,0.04794654,-0.00552775,-0.00257014,0.00554296,-0.00131267,0.43495917,0.45014498,12.96300697,0.22598150,0.00000000,0.00000000,0.50000000,0.04729500,0.00000000,1.00000000,79.21600342,12.59815025,-98567536.00000000,0.00000000,-207667313611013683196565854544199680.00000000,159.00000000,0.09704550,-0.08164653,9.96605873,-0.02665100,-0.01603624,-0.06051216,0.16675289,0.03720950,-0.47558001,0.00595800,-0.00814536,0.22736444,0.45093113,-0.61850655,10.76749611,0.99937034,0.02867928,0.02088271,0.00059928,0.00250823,-0.00296034,0.00953955,0.00122760,0.00101035,0.00170723,23528348.00000000,-0.00000000,3146434217177513984.00000000,4283.56494141,-5849222089617178624.00000000,283340590244954112.00000000,-15326345216.00000000,0.00000000,73.03144836,-2594362831801417728.00000000,17729922081629812686597420333662208.00000000,0.00000000
0.10050315,-0.07418089,9.82537937,-0.00638535,0.00212845,-0.04150478,0.18585205,0.05508423,-0.44860840,0.00000000,-0.00000000,0.31000000,-0.00100000,0.00500000,0.02900000,0.99944663,0.00431642,0.00352397,-0.03279396,-0.01017299,0.01390919,-0.00540935,-0.24300098,0.33359486,-0.15500954,-0.00790497,0.00143617,-0.05225930,-0.01332040,0.04794654,-0.00552775,-0.00257014,0.00554296,-0.00131267,0.43811741,0.45383126,12.96320534,0.22678515,0.00000000,0.00000000,0.50000000,0.04829500,0.00000000,1.00000000,79.21658325,12.67851448,-98567536.00000000,0.00000000,-207667313611013683196565854544199680.00000000,159.00000000,0.09290379,-0.08661055,10.00721359,-0.03136224,-0.02070424,-0.06536937,0.16302939,0.03280171,-0.48270079,0.00610380,-0.00834551,0.22743420,0.45095035,-0.61851722,10.76737881,0.99937028,0.02868008,0.02088383,0.00059933,0.00256174,-0.00302457,0.00976902,0.00125126,0.00102865,0.00174061,23528348.00000000,-0.00000000,3146434217177513984.00000000,4283.56494141,-5849222089617178624.00000000,283340590244954112.00000000,-15326345216.00000000,0.00000000,73.03144836,-2594362831801417728.00000000,17729922081629812686597420333662208.00000000,0.00000000
0.11486074,-0.06939503,9.81820011,-0.00744958,0.00319268,-0.03937633,0.18463135,0.05459595,-0.44750977,0.00000000,-0.00000000,0.31000000,-0.00100000,0.00500000,0.02900000,0.99944639,0.00429804,0.00350769,-0.03280516,-0.01048644,0.01433947,-0.00560906,-0.24279332,0.33329275,-0.15469371,-0.00790497,0.00143617,-0.05225930,-0.01332040,0.04794654,-0.00552775,-0.00257014,0.00554296,-0.00131267,0.44115317,0.45738617,12.96345711,0.22754110,0.00000000,0.00000000,0.50000000,0.04958600,0.00000000,1.00000000,79.21731567,12.75411034,-98567536.00000000,0.00000000,-207667313611013683196565854544199680.00000000,159.00000000,0.08925384,-0.09100182,10.04313755,-0.03546593,-0.02477523,-0.06960086,0.15980476,0.02895952,-0.48891822,0.00629187,-0.00860368,0.22752406,0.45098415,-0.61852109,10.76710987,0.99937022,0.02868097,0.02088591,0.00059941,0.00263082,-0.00310749,0.01006508,0.00128183,0.00105229,0.00178372,23528348.00000000,-0.00000000,3146434217177513984.00000000,4283.56494141,-5849222089617178624.00000000,283340590244954112.00000000,-15326345216.00000000,0.00000000,73.03144836,-2594362831801417728.00000000,17729922081629812686597420333662208.00000000,0.00000000
0.12682541,-0.05982330,9.80862904,-0.00851380,0.00319268,-0.03511943,0.18463135,0.05459595,-0.44750977,0.00000000,-0.00000000,0.31000000,-0.00100000,0.00500000,0.02900000,0.99944621,0.00428665,0.00349755,-0.03281260,-0.01065850,0.01457565,-0.00571860,-0.24268167,0.33312425,-0.15449829,-0.00790497,0.00143617,-0.05225930,-0.01332040,0.04794654,-0.00552775,-0.00257014,0.00554296,-0.00131267,0.44407418,0.46081454,12.96358967,0.22821547,0.00000000,0.00000000,0.50000000,0.05029500,0.00000000,1.00000000,79.21770477,12.82154655,-98567536.00000000,0.00000000,-207667313611013683196565854544199680.00000000,159.00000000,0.08610609,-0.09483133,10.07413292,-0.03900249,-0.02828503,-0.07323968,0.15704411,0.02564681,-0.49428329,0.00639510,-0.00874539,0.22757336,0.45100692,-0.61851841,10.76690674,0.99937016,0.02868139,0.02088735,0.00059946,0.00266874,-0.00315302,0.01022762,0.00129863,0.00106528,0.00180740,23528348.00000000,-0.00000000,3146434217177513984.00000000,4283.56494141,-5849222089617178624.00000000,283340590244954112.00000000,-15326345216.00000000,0.00000000,73.03144836,-2594362831801417728.00000000,17729922081629812686597420333662208.00000000,0.00000000
0.11007488,-0.05982330,9.76794910,-0.00957803,0.00319268,-0.03937633,0.18463135,0.05459595,-0.44750977,0.00000000,-0.00000000,0.31000000,-0.00100000,0.00500000,0.02900000,0.99944597,0.00426903,0.00348182,-0.03282463,-0.01090103,0.01490854,-0.00587280,-0.24252719,0.33288363,-0.15419629,-0.00790497,0.00143617,-0.05225930,-0.01332040,0.04794654,-0.00552775,-0.00257014,0.00554296,-0.00131267,0.44688678,0.46412179,12.96377182,0.22880612,0.00000000,0.00000000,0.50000000,0.05129500,0.00000000,1.00000000,79.21823120,12.88061142,-98567536.00000000,0.00000000,-207667313611013683196565854544199680.00000000,159.00000000,0.08345992,-0.09810365,10.10050297,-0.04201449,-0.03127200,-0.07631416,0.15471342,0.02282702,-0.49885073,0.00654062,-0.00894512,0.22764274,0.45104426,-0.61850899,10.76655483,0.99937016,0.02868189,0.02088976,0.00059954,0.00272223,-0.00321723,0.01045672,0.00132235,0.00108362,0.00184082,23528348.00000000,-0.00000000,3146434217177513984.00000000,4283.56494141,-5849222089617178624.00000000,283340590244954112.00000000,-15326345216.00000000,0.00000000,73.03144836,-2594362831801417728.00000000,17729922081629812686597420333662208.00000000,0.00000000
0.11246781,-0.05025157,9.77991390,-0.00744958,0.00212845,-0.03831211,0.18292236,0.05294800,-0.44952393,0.00000000,-0.00000000,0.31000000,-0.00100000,0.00500000,0.02900000,0.99944562,0.00424457,0.00345994,-0.03284182,-0.01121412,0.01533822,-0.00607148,-0.24233104,0.33256981,-0.15377760,-0.00790497,0.00143617,-0.05225930,-0.01332040,0.04794654,-0.00552775,-0.00257014,0.00554296,-0.00131267,0.44959727,0.46731320,12.96400070,0.22932373,0.00000000,0.00000000,0.50000000,0.05258700,0.00000000,1.00000000,79.21890259,12.93237305,-98567536.00000000,0.00000000,-207667313611013683196565854544199680.00000000,159.00000000,0.08125349,-0.10083324,10.12255001,-0.04454034,-0.03377414,-0.07886893,0.15277793,0.02046193,-0.50268078,0.00672847,-0.00920293,0.22773215,0.45109844,-0.61849111,10.76602745,0.99937004,0.02868246,0.02089329,0.00059965,0.00279133,-0.00330017,0.01075246,0.00135301,0.00110736,0.00188401,23528348.00000000,-0.00000000,3146434217177513984.00000000,4283.56494141,-5849222089617178624.00000000,283340590244954112.00000000,-15326345216.00000000,0.00000000,73.03144836,-2594362831801417728.00000000,17729922081629812686597420333662208.00000000,0.00000000
0.08853849,-0.04307278,9.79905701,-0.00425690,0.00000000,-0.03724788,0.18292236,0.05294800,-0.44952393,0.00000000,-0.00000000,0.31000000,-0.00100000,0.00500000,0.02900000,0.99944538,0.00423040,0.00344724,-0.03285198,-0.01138562,0.01557355,-0.00618018,-0.24222505,0.33239648,-0.15353537,-0.00790497,0.00143617,-0.05225930,-0.01332040,0.04794654,-0.00552775,-0.00257014,0.00554296,-0.00131267,0.45220917,0.47039419,12.96412373,0.22974852,0.00000000,0.00000000,0.50000000,0.05329500,0.00000000,1.00000000,79.21926117,12.97485161,-98567536.00000000,0.00000000,-207667313611013683196565854544199680.00000000,159.00000000,0.07941184,-0.10302585,10.14061356,-0.04660982,-0.03583021,-0.08094549,0.15120269,0.01851323,-0.50583404,0.00683137,-0.00934413,0.22778107,0.45113075,-0.61847872,10.76570606,0.99936998,0.02868274,0.02089541,0.00059972,0.00282918,-0.00334562,0.01091445,0.00136983,0.00112037,0.00190769,23528348.00000000,-0.00000000,3146434217177513984.00000000,4283.56494141,-5849222089617178624.00000000,283340590244954112.00000000,-15326345216.00000000,0.00000000,73.03144836,-2594362831801417728.00000000,17729922081629812686597420333662208.00000000,0.00000000
0.05743037,-0.06221624,9.81580734,-0.00744958,0.00319268,-0.04576168,0.18292236,0.05294800,-0.44952393,0.00000000,-0.00000000,0.31000000,-0.00100000,0.00500000,0.02900000,0.99944502,0.00420957,0.00342855,-0.03286714,-0.01162745,0.01590537,-0.00633321,-0.24207747,0.33215064,-0.15317918,-0.00790497,0.00143617,-0.05225930,-0.01332040,0.04794654,-0.00552775,-0.00257014,0.00554296,-0.00131267,0.45472345,0.47337037,12.96429253,0.23013252,0.00000000,0.00000000,0.50000000,0.05429400,0.00000000,1.00000000,79.21974945,13.01325226,-98567536.00000000,0.00000000,-207667313611013683196565854544199680.00000000,159.00000000,0.07781807,-0.10471540,10.15501690,-0.04825415,-0.03747483,-0.08258918,0.14995803,0.01694761,-0.50836468,0.00697647,-0.00954322,0.22784995,0.45117968,-0.61845863,10.76521587,0.99936992,0.02868311,0.02089862,0.00059982,0.00288259,-0.00340973,0.01114284,0.00139358,0.00113876,0.00194111,23528348.00000000,-0.00000000,3146434217177513984.00000000,4283.56494141,-5849222089617178624.00000000,283340590244954112.00000000,-15326345216.00000000,0.00000000,73.03144836,-2594362831801417728.00000000,17729922081629812686597420333662208.00000000,0.00000000
0.08614556,-0.06460917,9.82059383,-0.00744958,0.00212845,-0.03511943,0.18280029,0.05441284,-0.45318604,0.00000000,-0.00000000,0.31000000,-0.00100000,0.00500000,0.02900000,0.99944454,0.00418179,0.00340358,-0.03288754,-0.01193997,0.01633410,-0.00653050,-0.24188910,0.33183178,-0.15270425,-0.00790497,0.00143617,-0.05225930,-0.01332040,0.04794654,-0.00552775,-0.00257014,0.00554296,-0.00131267,0.45714423,0.47624576,12.96450615,0.23049940,0.00000000,0.00000000,0.50000000,0.05558600,0.00000000,1.00000000,79.22037506,13.04994011,-98567536.00000000,0.00000000,-207667313611013683196565854544199680.00000000,159.00000000,0.07638912,-0.10597728,10.16604137,-0.04951122,-0.03873750,-0.08384129,0.14901765,0.01573702,-0.51032603,0.00716398,-0.00980046,0.22793873,0.45124722,-0.61843061,10.76454544,0.99936980,0.02868359,0.02090304,0.00059995,0.00295164,-0.00349262,0.01143791,0.00142432,0.00116258,0.00198436,23528348.00000000,-0.00000000,3146434217177513984.00000000,4283.56494141,-5849222089617178624.00000000,283340590244954112.00000000,-15326345216.00000000,0.00000000,73.03144836,-2594362831801417728.00000000,17729922081629812686597420333662208.00000000,0.00000000
0.08135969,-0.06700210,9.86366653,-0.00638535,0.00319268,-0.03831211,0.18280029,0.05441284,-0.45318604,0.00000000,-0.00000000,0.31000000,-0.00100000,0.00500000,0.02900000,0.99944431,0.00416621,0.00338956,-0.03289906,-0.01211140,0.01656924,-0.00663858,-0.24178682,0.33165643,-0.15243796,-0.00790497,0.00143617,-0.05225930,-0.01332040,0.04794654,-0.00552775,-0.00257014,0.00554296,-0.00131267,0.45947433,0.47902426,12.96462059,0.23079593,0.00000000,0.00000000,0.50000000,0.05629500,0.00000000,1.00000000,79.22070312,13.07959366,-98567536.00000000,0.00000000,-207667313611013683196565854544199680.00000000,159.00000000,0.07513017,-0.10686983,10.17404556,-0.05041190,-0.03965054,-0.08472236,0.14835538,0.01485516,-0.51177341,0.00726684,-0.00994155,0.22798736,0.45128611,-0.61841440,10.76416302,0.99936974,0.02868386,0.02090558,0.00060003,0.00298953,-0.00353810,0.01159974,0.00144121,0.00117566,0.00200811,23528348.00000000,-0.00000000,3146434217177513984.00000000,4283.56494141,-5849222089617178624.00000000,283340590244954112.00000000,-15326345216.00000000,0.00000000,73.03144836,-2594362831801417728.00000000,17729922081629812686597420333662208.00000000,0.00000000
0.05503744,-0.08375262,9.89238167,-0.00638535,0.00319268,-0.04150478,0.18280029,0.05441284,-0.45318604,0.00000000,-0.00000000,0.31000000,-0.00100000,0.00500000,0.02900000,0.99944395,0.00414394,0.00336951,-0.03291556,-0.01235304,0.01690065,-0.00679064,-0.24164411,0.33140901,-0.15205689,-0.00790497,0.00143617,-0.05225930,-0.01332040,0.04794654,-0.00552775,-0.00257014,0.00554296,-0.00131267,0.46171495,0.48171088,12.96477890,0.23105623,0.00000000,0.00000000,0.50000000,0.05729500,0.00000000,1.00000000,79.22116852,13.10562229,-98567536.00000000,0.00000000,-207667313611013683196565854544199680.00000000,159.00000000,0.07399097,-0.10745632,10.17949390,-0.05098188,-0.04024480,-0.08526605,0.14794591,0.01427450,-0.51275516,0.00741183,-0.01014039,0.22805578,0.45134366,-0.61839110,10.76360989,0.99936962,0.02868425,0.02090931,0.00060015,0.00304296,-0.00360223,0.01182781,0.00146505,0.00119414,0.00204161,23528348.00000000,-0.00000000,3146434217177513984.00000000,4283.56494141,-5849222089617178624.00000000,283340590244954112.00000000,-15326345216.00000000,0.00000000,73.03144836,-2594362831801417728.00000000,17729922081629812686597420333662208.00000000,0.00000000
0.07657383,-0.06460917,9.79427147,-0.00744958,0.00425690,-0.04044056,0.18280029,0.05441284,-0.45361328,0.00000000,-0.00000000,0.31000000,-0.00100000,0.00500000,0.02900000,0.99944335,0.00411501,0.00334344,-0.03293703,-0.01266477,0.01732809,-0.00698630,-0.24146193,0.33108997,-0.15156077,-0.00790497,0.00143617,-0.05225930,-0.01332040,0.04794654,-0.00552775,-0.00257014,0.00554296,-0.00131267,0.46386802,0.48430869,12.96497631,0.23130728,0.00000000,0.00000000,0.50000000,0.05858600,0.00000000,1.00000000,79.22174072,13.13072777,-98567536.00000000,0.00000000,-207667313611013683196565854544199680.00000000,159.00000000,0.07291073,-0.10779773,10.18267727,-0.05125298,-0.04054543,-0.08551394,0.14776544,0.01396794,-0.51331532,0.00759886,-0.01039685,0.22814384,0.45142135,-0.61836129,10.76288414,0.99936956,0.02868480,0.02091432,0.00060030,0.00311192,-0.00368501,0.01212193,0.00149586,0.00121803,0.00208489,23528348.00000000,-0.00000000,3146434217177513984.00000000,4283.56494141,-5849222089617178624.00000000,283340590244954112.00000000,-15326345216.00000000,0.00000000,73.03144836,-2594362831801417728.00000000,17729922081629812686597420333662208.00000000,0.00000000
0.06939503,-0.03828691,9.71291161,-0.00425690,0.00319268,-0.04256901,0.18280029,0.05441284,-0.45361328,0.00000000,-0.00000000,0.31000000,-0.00100000,0.00500000,0.02900000,0.99944311,0.00409914,0.00332913,-0.03294880,-0.01283566,0.01756238,-0.00709341,-0.24136293,0.33091524,-0.15128806,-0.00790497,0.00143617,-0.05225930,-0.01332040,0.04794654,-0.00552775,-0.00257014,0.00554296,-0.00131267,0.46593356,0.48681736,12.96508121,0.23152071,0.00000000,0.00000000,0.50000000,0.05929400,0.00000000,1.00000000,79.22205353,13.15207100,-98567536.00000000,0.00000000,-207667313611013683196565854544199680.00000000,159.00000000,0.07191823,-0.10787326,10.18354607,-0.05125565,-0.04057675,-0.08549534,0.14779185,0.01391064,-0.51349711,0.00770139,-0.01053743,0.22819203,0.45146552,-0.61834520,10.76248360,0.99936944,0.02868512,0.02091714,0.00060039,0.00314974,-0.00373040,0.01228313,0.00151276,0.00123115,0.00210864,23528348.00000000,-0.00000000,3146434217177513984.00000000,4283.56494141,-5849222089617178624.00000000,283340590244954112.00000000,-15326345216.00000000,0.00000000,73.03144836,-2594362831801417728.00000000,17729922081629812686597420333662208.00000000,0.00000000
0.11725368,-0.04067985,9.77512741,-0.00638535,0.00425690,-0.03724788,0.18280029,0.05441284,-0.45361328,0.00000000,-0.00000000,0.31000000,-0.00100000,0.00500000,0.02900000,0.99944276,0.00407685,0.00330902,-0.03296530,-0.01307688,0.01789304,-0.00724432,-0.24122432,0.33066919,-0.15090430,-0.00790497,0.00143617,-0.05225930,-0.01332040,0.04794654,-0.00552775,-0.00257014,0.00554296,-0.00131267,0.46791351,0.48923731,12.96522713,0.23171550,0.00000000,0.00000000,0.50000000,0.06029400,0.00000000,1.00000000,79.22247314,13.17154980,-98567536.00000000,0.00000000,-207667313611013683196565854544199680.00000000,159.00000000,0.07108966,-0.10763920,10.18211460,-0.05101485,-0.04036427,-0.08523373,0.14800443,0.01407860,-0.51333928,0.00784613,-0.01073583,0.22825992,0.45152992,-0.61832356,10.76192188,0.99936938,0.02868560,0.02092121,0.00060052,0.00320314,-0.00379449,0.01251063,0.00153667,0.00124970,0.00214219,23528348.00000000,-0.00000000,3146434217177513984.00000000,4283.56494141,-5849222089617178624.00000000,283340590244954112.00000000,-15326345216.00000000,0.00000000,73.03144836,-2594362831801417728.00000000,17729922081629812686597420333662208.00000000,0.00000000
0.11486074,-0.05743037,9.89477444,-0.00638535,0.00638535,-0.03831211,0.18493652,0.05532837,-0.45007324,0.00000000,-0.00000000,0.31000000,-0.00100000,0.00500000,0.02900000,0.99944228,0.00404837,0.00328330,-0.03298629,-0.01338831,0.01831986,-0.00743865,-0.24104662,0.33035281,-0.15041275,-0.00790497,0.00143617,-0.05225930,-0.01332040,0.04794654,-0.00552775,-0.00257014,0.00554296,-0.00131267,0.46981099,0.49156752,12.96541023,0.23187913,0.00000000,0.00000000,0.50000000,0.06158600,0.00000000,1.00000000,79.22300720,13.18791294,-98567536.00000000,0.00000000,-207667313611013683196565854544199680.00000000,159.00000000,0.07050984,-0.10712049,10.17877197,-0.05055709,-0.03993018,-0.08474882,0.14838609,0.01444907,-0.51287174,0.00803299,-0.01099192,0.22834739,0.45161542,-0.61829776,10.76120472,0.99936926,0.02868631,0.02092655,0.00060068,0.00327212,-0.00387728,0.01280425,0.00156759,0.00127371,0.00218557,23528348.00000000,-0.00000000,3146434217177513984.00000000,4283.56494141,-5849222089617178624.00000000,283340590244954112.00000000,-15326345216.00000000,0.00000000,73.03144836,-2594362831801417728.00000000,17729922081629812686597420333662208.00000000,0.00000000
0.09332436,-0.05982330,9.85170174,-0.00638535,0.00957803,-0.04682591,0.18493652,0.05532837,-0.45007324,0.00000000,-0.00000000,0.31000000,-0.00100000,0.00500000,0.02900000,0.99944204,0.00403297,0.00326941,-0.03299757,-0.01355914,0.01855396,-0.00754510,-0.24094953,0.33018002,-0.15014645,-0.00790497,0.00143617,-0.05225930,-0.01332040,0.04794654,-0.00552775,-0.00257014,0.00554296,-0.00131267,0.47162595,0.49380174,12.96550941,0.23201391,0.00000000,0.00000000,0.50000000,0.06229500,0.00000000,1.00000000,79.22329712,13.20139122,-98567536.00000000,0.00000000,-207667313611013683196565854544199680.00000000,159.00000000,0.07016870,-0.10636481,10.17390633,-0.04990645,-0.03929083,-0.08407589,0.14892252,0.01500082,-0.51211882,0.00813549,-0.01113237,0.22839530,0.45166296,-0.61828500,10.76082039,0.99936914,0.02868675,0.02092950,0.00060078,0.00330996,-0.00392269,0.01296528,0.00158457,0.00128690,0.00220938,23528348.00000000,-0.00000000,3146434217177513984.00000000,4283.56494141,-5849222089617178624.00000000,283340590244954112.00000000,-15326345216.00000000,0.00000000,73.03144836,-2594362831801417728.00000000,17729922081629812686597420333662208.00000000,0.00000000
0.11486074,-0.02871519,9.75598431,-0.00532113,0.00851380,-0.04363323,0.18493652,0.05532837,-0.45007324,0.00000000,-0.00000000,0.31000000,-0.00100000,0.00500000,0.02900000,0.99944168,0.00401169,0.00325021,-0.03301308,-0.01379996,0.01888390,-0.00769488,-0.24081309,0.32993779,-0.14977719,-0.00790497,0.00143617,-0.05225930,-0.01332040,0.04794654,-0.00552775,-0.00257014,0.00554296,-0.00131267,0.47336033,0.49593377,12.96564484,0.23219134,0.00000000,0.00000000,0.50000000,0.06329500,0.00000000,1.00000000,79.22369385,13.21913338,-98567536.00000000,0.00000000,-207667313611013683196565854544199680.00000000,159.00000000,0.07002822,-0.10535666,10.16754341,-0.04908261,-0.03846328,-0.08325395,0.14959718,0.01571289,-0.51110905,0.00827998,-0.01133034,0.22846270,0.45173085,-0.61826932,10.76029205,0.99936903,0.02868742,0.02093366,0.00060091,0.00336333,-0.00398675,0.01319222,0.00160854,0.00130552,0.00224299,23528348.00000000,-0.00000000,3146434217177513984.00000000,4283.56494141,-5849222089617178624.00000000,283340590244954112.00000000,-15326345216.00000000,0.00000000,73.03144836,-2594362831801417728.00000000,17729922081629812686597420333662208.00000000,0.00000000
0.16511232,0.02392932,9.83495140,-0.00319268,0.01170648,-0.03618366,0.18798828,0.05563354,-0.44720459,0.00000000,-0.00000000,0.31000000,-0.00100000,0.00500000,0.02900000,0.99944121,0.00398486,0.00322605,-0.03303247,-0.01411062,0.01930944,-0.00788764,-0.24063730,0.32962760,-0.14931042,-0.00790497,0.00143617,-0.05225930,-0.01332040,0.04794654,-0.00552775,-0.00257014,0.00554296,-0.00131267,0.47501427,0.49795604,12.96581745,0.23237827,0.00000000,0.00000000,0.50000000,0.06458600,0.00000000,1.00000000,79.22419739,13.23782730,-98567536.00000000,0.00000000,-207667313611013683196565854544199680.00000000,159.00000000,0.07018737,-0.10399803,10.15979958,-0.04810357,-0.03746481,-0.08229110,0.15039675,0.01656605,-0.50986969,0.00846637,-0.01158567,0.22854944,0.45181882,-0.61825323,10.75963497,0.99936891,0.02868842,0.02093901,0.00060109,0.00343222,-0.00406942,0.01348491,0.00163952,0.00132960,0.00228639,23528348.00000000,-0.00000000,3146434217177513984.00000000,4283.56494141,-5849222089617178624.00000000,283340590244954112.00000000,-15326345216.00000000,0.00000000,73.03144836,-2594362831801417728.00000000,17729922081629812686597420333662208.00000000,0.00000000
0.14596885,-0.04785864,9.89238167,-0.00532113,0.01170648,-0.04576168,0.18798828,0.05563354,-0.44720459,0.00000000,-0.00000000,0.31000000,-0.00100000,0.00500000,0.02900000,0.99944097,0.00397054,0.00321318,-0.03304273,-0.01428116,0.01954303,-0.00799333,-0.24054050,0.32945868,-0.14906019,-0.00790497,0.00143617,-0.05225930,-0.01332040,0.04794654,-0.00552775,-0.00257014,0.00554296,-0.00131267,0.47658357,0.49985537,12.96590900,0.23252082,0.00000000,0.00000000,0.50000000,0.06529500,0.00000000,1.00000000,79.22446442,13.25208187,-98567536.00000000,0.00000000,-207667313611013683196565854544199680.00000000,159.00000000,0.07074042,-0.10229810,10.15116787,-0.04698941,-0.03630789,-0.08119810,0.15131274,0.01754336,-0.50842267,0.00856870,-0.01172582,0.22859700,0.45186660,-0.61824691,10.75928879,0.99936879,0.02868905,0.02094189,0.00060118,0.00347005,-0.00411481,0.01364557,0.00165654,0.00134284,0.00231024,23528348.00000000,-0.00000000,3146434217177513984.00000000,4283.56494141,-5849222089617178624.00000000,283340590244954112.00000000,-15326345216.00000000,0.00000000,73.03144836,-2594362831801417728.00000000,17729922081629812686597420333662208.00000000,0.00000000
0.08614556,-0.08853849,9.74401951,-0.00638535,0.01170648,-0.04682591,0.18798828,0.05563354,-0.44720459,0.00000000,-0.00000000,0.31000000,-0.00100000,0.00500000,0.02900000,0.99944061,0.00395099,0.00319566,-0.03305660,-0.01452133,0.01987192,-0.00814189,-0.24040358,0.32922295,-0.14871690,-0.00790497,0.00143617,-0.05225930,-0.01332040,0.04794654,-0.00552775,-0.00257014,0.00554296,-0.00131267,0.47807151,0.50161958,12.96603775,0.23269987,0.00000000,0.00000000,0.50000000,0.06629400,0.00000000,1.00000000,79.22483826,13.26998711,-98567536.00000000,0.00000000,-207667313611013683196565854544199680.00000000,159.00000000,0.07156759,-0.10047248,10.14183998,-0.04576467,-0.03500805,-0.08001456,0.15233256,0.01862803,-0.50679296,0.00871280,-0.01192315,0.22866383,0.45193282,-0.61824173,10.75882435,0.99936873,0.02869004,0.02094586,0.00060132,0.00352334,-0.00417876,0.01387177,0.00168055,0.00136151,0.00234385,23528348.00000000,-0.00000000,3146434217177513984.00000000,4283.56494141,-5849222089617178624.00000000,283340590244954112.00000000,-15326345216.00000000,0.00000000,73.03144836,-2594362831801417728.00000000,17729922081629812686597420333662208.00000000,0.00000000
0.15314765,-0.10528901,9.70812607,-0.00744958,0.01170648,-0.04576168,0.17883301,0.05838013,-0.45031738,0.00000000,-0.00000000,0.31000000,-0.00100000,0.00500000,0.02900000,0.99944019,0.00392657,0.00317388,-0.03307374,-0.01483194,0.02029722,-0.00833363,-0.24022555,0.32892081,-0.14828591,-0.00790497,0.00143617,-0.05225930,-0.01332040,0.04794654,-0.00552775,-0.00257014,0.00554296,-0.00131267,0.47948378,0.50323826,12.96619987,0.23294315,0.00000000,0.00000000,0.50000000,0.06758700,0.00000000,1.00000000,79.22531128,13.29431438,-98567536.00000000,0.00000000,-207667313611013683196565854544199680.00000000,159.00000000,0.07256664,-0.09868966,10.13149643,-0.04445083,-0.03358619,-0.07876804,0.15342991,0.01980649,-0.50501096,0.00889916,-0.01217833,0.22875012,0.45201680,-0.61823994,10.75825500,0.99936855,0.02869147,0.02095085,0.00060149,0.00359230,-0.00426151,0.01416428,0.00171165,0.00138571,0.00238737,23528348.00000000,-0.00000000,3146434217177513984.00000000,4283.56494141,-5849222089617178624.00000000,283340590244954112.00000000,-15326345216.00000000,0.00000000,73.03144836,-2594362831801417728.00000000,17729922081629812686597420333662208.00000000,0.00000000
0.20100629,-0.11486074,9.85648727,-0.00638535,0.01383493,-0.04256901,0.17883301,0.05838013,-0.45031738,0.00000000,-0.00000000,0.31000000,-0.00100000,0.00500000,0.02900000,0.99944001,0.00391371,0.00316248,-0.03308267,-0.01500195,0.02052998,-0.00843845,-0.24012727,0.32875675,-0.14805794,-0.00790497,0.00143617,-0.05225930,-0.01332040,0.04794654,-0.00552775,-0.00257014,0.00554296,-0.00131267,0.48082086,0.50470054,12.96628666,0.23319630,0.00000000,0.00000000,0.50000000,0.06829500,0.00000000,1.00000000,79.22556305,13.31962967,-98567536.00000000,0.00000000,-207667313611013683196565854544199680.00000000,159.00000000,0.07388928,-0.09700479,10.12016773,-0.04306350,-0.03206061,-0.07746366,0.15457135,0.02106850,-0.50310773,0.00900117,-0.01231799,0.22879730,0.45206121,-0.61824131,10.75796318,0.99936849,0.02869231,0.02095347,0.00060158,0.00363005,-0.00430681,0.01432437,0.00172869,0.00139898,0.00241121,23528348.00000000,-0.00000000,3146434217177513984.00000000,4283.56494141,-5849222089617178624.00000000,283340590244954112.00000000,-15326345216.00000000,0.00000000,73.03144836,-2594362831801417728.00000000,17729922081629812686597420333662208.00000000,0.00000000
0.21057802,-0.06460917,9.90434647,-0.00425690,0.01596338,-0.03937633,0.17883301,0.05838013,-0.45031738,0.00000000,-0.00000000,0.31000000,-0.00100000,0.00500000,0.02900000,0.99943972,0.00389630,0.00314715,-0.03309459,-0.01524194,0.02085851,-0.00858620,-0.23998694,0.32852691,-0.14774773,-0.00790497,0.00143617,-0.05225930,-0.01332040,0.04794654,-0.00552775,-0.00257014,0.00554296,-0.00131267,0.48208630,0.50599682,12.96640968,0.23345727,0.00000000,0.00000000,0.50000000,0.06929500,0.00000000,1.00000000,79.22592163,13.34572601,-98567536.00000000,0.00000000,-207667313611013683196565854544199680.00000000,159.00000000,0.07567798,-0.09543419,10.10836983,-0.04161424,-0.03044385,-0.07610306,0.15573692,0.02240134,-0.50110865,0.00914516,-0.01251510,0.22886379,0.45212111,-0.61824644,10.75757980,0.99936837,0.02869356,0.02095698,0.00060171,0.00368337,-0.00437079,0.01455033,0.00175278,0.00141773,0.00244490,23528348.00000000,-0.00000000,3146434217177513984.00000000,4283.56494141,-5849222089617178624.00000000,283340590244954112.00000000,-15326345216.00000000,0.00000000,73.03144836,-2594362831801417728.00000000,17729922081629812686597420333662208.00000000,0.00000000
0.18664871,-0.04785864,9.79427147,-0.00425690,0.01596338,-0.04044056,0.18395996,0.05380249,-0.45037842,0.00000000,-0.00000000,0.31000000,-0.00100000,0.00500000,0.02900000,0.99943936,0.00387482,0.00312841,-0.03310909,-0.01555176,0.02128258,-0.00877659,-0.23980322,0.32823241,-0.14736246,-0.00790497,0.00143617,-0.05225930,-0.01332040,0.04794654,-0.00552775,-0.00257014,0.00554296,-0.00131267,0.48328209,0.50711632,12.96656418,0.23370919,0.00000000,0.00000000,0.50000000,0.07058700,0.00000000,1.00000000,79.22637177,13.37091827,-98567536.00000000,0.00000000,-207667313611013683196565854544199680.00000000,159.00000000,0.07789235,-0.09393959,10.09633064,-0.04011459,-0.02874712,-0.07469303,0.15692009,0.02378629,-0.49903589,0.00933106,-0.01276955,0.22894947,0.45219398,-0.61825693,10.75712204,0.99936825,0.02869526,0.02096124,0.00060187,0.00375225,-0.00445344,0.01484205,0.00178393,0.00144199,0.00248844,23528348.00000000,-0.00000000,3146434217177513984.00000000,4283.56494141,-5849222089617178624.00000000,283340590244954112.00000000,-15326345216.00000000,0.00000000,73.03144836,-2594362831801417728.00000000,17729922081629812686597420333662208.00000000,0.00000000
0.24407908,-0.07178796,9.77512741,-0.00425690,0.01489915,-0.04150478,0.18395996,0.05380249,-0.45037842,0.00000000,-0.00000000,0.31000000,-0.00100000,0.00500000,0.02900000,0.99943918,0.00386361,0.00311874,-0.03311652,-0.01572147,0.02151486,-0.00888078,-0.23970081,0.32807213,-0.14716010,-0.00790497,0.00143617,-0.05225930,-0.01332040,0.04794654,-0.00552775,-0.00257014,0.00554296,-0.00131267,0.48440596,0.50804973,12.96664906,0.23392396,0.00000000,0.00000000,0.50000000,0.07129500,0.00000000,1.00000000,79.22662354,13.39239502,-98567536.00000000,0.00000000,-207667313611013683196565854544199680.00000000,159.00000000,0.08052921,-0.09251759,10.08394241,-0.03857809,-0.02698531,-0.07324681,0.15811706,0.02520259,-0.49691120,0.00943288,-0.01290892,0.22899635,0.45223063,-0.61826456,10.75689316,0.99936819,0.02869622,0.02096338,0.00060195,0.00378999,-0.00449872,0.01500184,0.00180101,0.00145529,0.00251230,23528348.00000000,-0.00000000,3146434217177513984.00000000,4283.56494141,-5849222089617178624.00000000,283340590244954112.00000000,-15326345216.00000000,0.00000000,73.03144836,-2594362831801417728.00000000,17729922081629812686597420333662208.00000000,0.00000000
0.25365081,-0.06700210,9.81341457,-0.00532113,0.01277070,-0.03831211,0.18395996,0.05380249,-0.45037842,0.00000000,-0.00000000,0.31000000,-0.00100000,0.00500000,0.02900000,0.99943894,0.00384859,0.00310596,-0.03312628,-0.01596102,0.02184271,-0.00902767,-0.23955321,0.32784730,-0.14688693,-0.00790497,0.00143617,-0.05225930,-0.01332040,0.04794654,-0.00552775,-0.00257014,0.00554296,-0.00131267,0.48546082,0.50879073,12.96676636,0.23412068,0.00000000,0.00000000,0.50000000,0.07229500,0.00000000,1.00000000,79.22695923,13.41206741,-98567536.00000000,0.00000000,-207667313611013683196565854544199680.00000000,159.00000000,0.08371498,-0.09116662,10.07130718,-0.03701650,-0.02517632,-0.07177102,0.15932208,0.02663575,-0.49475268,0.00957661,-0.01310562,0.22906244,0.45227697,-0.61827797,10.75660133,0.99936807,0.02869762,0.02096609,0.00060206,0.00384328,-0.00456267,0.01522741,0.00182515,0.00147409,0.00254601,23528348.00000000,-0.00000000,3146434217177513984.00000000,4283.56494141,-5849222089617178624.00000000,283340590244954112.00000000,-15326345216.00000000,0.00000000,73.03144836,-2594362831801417728.00000000,17729922081629812686597420333662208.00000000,0.00000000
0.21536389,-0.11246781,9.74401951,-0.00638535,0.01277070,-0.04150478,0.18206787,0.05245972,-0.45306396,0.00000000,-0.00000000,0.31000000,-0.00100000,0.00500000,0.02900000,0.99943870,0.00383025,0.00309060,-0.03313791,-0.01627027,0.02226591,-0.00921701,-0.23935808,0.32755882,-0.14655046,-0.00790497,0.00143617,-0.05225930,-0.01332040,0.04794654,-0.00552775,-0.00257014,0.00554296,-0.00131267,0.48644960,0.50933564,12.96691704,0.23428284,0.00000000,0.00000000,0.50000000,0.07358700,0.00000000,1.00000000,79.22740173,13.42828369,-98567536.00000000,0.00000000,-207667313611013683196565854544199680.00000000,159.00000000,0.08744632,-0.08985618,10.05855656,-0.03544024,-0.02333815,-0.07026923,0.16053019,0.02807218,-0.49257758,0.00976216,-0.01335955,0.22914766,0.45232856,-0.61829835,10.75626469,0.99936795,0.02869946,0.02096913,0.00060218,0.00391212,-0.00464528,0.01551865,0.00185636,0.00149841,0.00258959,23528348.00000000,-0.00000000,3146434217177513984.00000000,4283.56494141,-5849222089617178624.00000000,283340590244954112.00000000,-15326345216.00000000,0.00000000,73.03144836,-2594362831801417728.00000000,17729922081629812686597420333662208.00000000,0.00000000
0.15554059,-0.10050315,9.62915897,-0.00851380,0.01383493,-0.04576168,0.18206787,0.05245972,-0.45306396,0.00000000,-0.00000000,0.31000000,-0.00100000,0.00500000,0.02900000,0.99943858,0.00382078,0.00308282,-0.03314375,-0.01643966,0.02249771,-0.00932065,-0.23924839,0.32740164,-0.14637539,-0.00790497,0.00143617,-0.05225930,-0.01332040,0.04794654,-0.00552775,-0.00257014,0.00554296,-0.00131267,0.48737276,0.50968599,12.96700001,0.23440495,0.00000000,0.00000000,0.50000000,0.07429500,0.00000000,1.00000000,79.22764587,13.44049454,-98567536.00000000,0.00000000,-207667313611013683196565854544199680.00000000,159.00000000,0.09148847,-0.08861279,10.04542542,-0.03386293,-0.02148529,-0.06876106,0.16173893,0.02949584,-0.49040347,0.00986380,-0.01349863,0.22919427,0.45235178,-0.61831099,10.75610256,0.99936789,0.02870047,0.02097052,0.00060224,0.00394984,-0.00469054,0.01567819,0.00187348,0.00151174,0.00261347,23528348.00000000,-0.00000000,3146434217177513984.00000000,4283.56494141,-5849222089617178624.00000000,283340590244954112.00000000,-15326345216.00000000,0.00000000,73.03144836,-2594362831801417728.00000000,17729922081629812686597420333662208.00000000,0.00000000
0.14836179,-0.06460917,9.68419647,-0.00851380,0.01277070,-0.03937633,0.18206787,0.05245972,-0.45306396,0.00000000,-0.00000000,0.31000000,-0.00100000,0.00500000,0.02900000,0.99943841,0.00380821,0.00307272,-0.03315125,-0.01667875,0.02282489,-0.00946679,-0.23908958,0.32718089,-0.14614190,-0.00790497,0.00143617,-0.05225930,-0.01332040,0.04794654,-0.00552775,-0.00257014,0.00554296,-0.00131267,0.48823798,0.50984263,12.96711826,0.23453936,0.00000000,0.00000000,0.50000000,0.07529500,0.00000000,1.00000000,79.22798920,13.45393562,-98567536.00000000,0.00000000,-207667313611013683196565854544199680.00000000,159.00000000,0.09559361,-0.08744614,10.03164291,-0.03230060,-0.01963182,-0.06726365,0.16294374,0.03089654,-0.48824394,0.01000725,-0.01369494,0.22926004,0.45237738,-0.61833096,10.75590897,0.99936783,0.02870191,0.02097207,0.00060232,0.00400311,-0.00475447,0.01590343,0.00189766,0.00153058,0.00264721,23528348.00000000,-0.00000000,3146434217177513984.00000000,4283.56494141,-5849222089617178624.00000000,283340590244954112.00000000,-15326345216.00000000,0.00000000,73.03144836,-2594362831801417728.00000000,17729922081629812686597420333662208.00000000,0.00000000
0.26561546,-0.04307278,9.83734417,-0.00851380,0.01170648,-0.04150478,0.18487549,0.05441284,-0.45092773,0.00000000,-0.00000000,0.31000000,-0.00100000,0.00500000,0.02900000,0.99943823,0.00379303,0.00306084,-0.03315997,-0.01698714,0.02324692,-0.00965509,-0.23887947,0.32689753,-0.14585875,-0.00790497,0.00143617,-0.05225930,-0.01332040,0.04794654,-0.00552775,-0.00257014,0.00554296,-0.00131267,0.48905507,0.50980991,12.96727657,0.23467378,0.00000000,0.00000000,0.50000000,0.07658600,0.00000000,1.00000000,79.22844696,13.46737862,-98567536.00000000,0.00000000,-207667313611013683196565854544199680.00000000,159.00000000,0.09978398,-0.08632484,10.01749229,-0.03076649,-0.01779397,-0.06577935,0.16413803,0.03227263,-0.48610833,0.01019229,-0.01394815,0.22934480,0.45240101,-0.61835915,10.75570297,0.99936777,0.02870377,0.02097356,0.00060240,0.00407187,-0.00483698,0.01619407,0.00192890,0.00155493,0.00269078,23528348.00000000,-0.00000000,3146434217177513984.00000000,4283.56494141,-5849222089617178624.00000000,283340590244954112.00000000,-15326345216.00000000,0.00000000,73.03144836,-2594362831801417728.00000000,17729922081629812686597420333662208.00000000,0.00000000
0.22732855,-0.04307278,9.81580734,-0.01064225,0.00957803,-0.04044056,0.18487549,0.05441284,-0.45092773,0.00000000,-0.00000000,0.31000000,-0.00100000,0.00500000,0.02900000,0.99943811,0.00378524,0.00305493,-0.03316425,-0.01715642,0.02347858,-0.00975840,-0.23876104,0.32674268,-0.14571321,-0.00790497,0.00143617,-0.05225930,-0.01332040,0.04794654,-0.00552775,-0.00257014,0.00554296,-0.00131267,0.48983252,0.50960267,12.96736526,0.23477834,0.00000000,0.00000000,0.50000000,0.07729500,0.00000000,1.00000000,79.22870636,13.47783470,-98567536.00000000,0.00000000,-207667313611013683196565854544199680.00000000,159.00000000,0.10420132,-0.08523099,10.00344849,-0.02927226,-0.01598609,-0.06431454,0.16531549,0.03362602,-0.48400414,0.01029385,-0.01408715,0.22939128,0.45240843,-0.61837596,10.75561523,0.99936771,0.02870478,0.02097408,0.00060244,0.00410962,-0.00488230,0.01635364,0.00194606,0.00156830,0.00271472,23528348.00000000,-0.00000000,3146434217177513984.00000000,4283.56494141,-5849222089617178624.00000000,283340590244954112.00000000,-15326345216.00000000,0.00000000,73.03144836,-2594362831801417728.00000000,17729922081629812686597420333662208.00000000,0.00000000
0.22493562,-0.08853849,9.67462444,-0.00957803,0.00532113,-0.03831211,0.18487549,0.05441284,-0.45092773,0.00000000,-0.00000000,0.31000000,-0.00100000,0.00500000,0.02900000,0.99943799,0.00377501,0.00304746,-0.03316955,-0.01739501,0.02380510,-0.00990392,-0.23858958,0.32652533,-0.14552188,-0.00790497,0.00143617,-0.05225930,-0.01332040,0.04794654,-0.00552775,-0.00257014,0.00554296,-0.00131267,0.49058354,0.50923240,12.96749687,0.23487799,0.00000000,0.00000000,0.50000000,0.07829500,0.00000000,1.00000000,79.22909546,13.48779869,-98567536.00000000,0.00000000,-207667313611013683196565854544199680.00000000,159.00000000,0.10878170,-0.08417111,9.98951340,-0.02782637,-0.01422310,-0.06287205,0.16647105,0.03495497,-0.48193881,0.01043701,-0.01428306,0.22945675,0.45241073,-0.61840129,10.75552559,0.99936765,0.02870619,0.02097435,0.00060247,0.00416287,-0.00494620,0.01657862,0.00197028,0.00158717,0.00274847,23528348.00000000,-0.00000000,3146434217177513984.00000000,4283.56494141,-5849222089617178624.00000000,283340590244954112.00000000,-15326345216.00000000,0.00000000,73.03144836,-2594362831801417728.00000000,17729922081629812686597420333662208.00000000,0.00000000
0.17468405,-0.05743037,9.81341457,-0.01170648,0.00000000,-0.04256901,0.18658447,0.05447388,-0.44738770,0.00000000,-0.00000000,0.31000000,-0.00100000,0.00500000,0.02900000,0.99943787,0.00376273,0.00303886,-0.03317548,-0.01770298,0.02422661,-0.01009164,-0.23836234,0.32624593,-0.14529260,-0.00790497,0.00143617,-0.05225930,-0.01332040,0.04794654,-0.00552775,-0.00257014,0.00554296,-0.00131267,0.49132013,0.50871682,12.96767235,0.23496175,0.00000000,0.00000000,0.50000000,0.07958700,0.00000000,1.00000000,79.22960663,13.49617481,-98567536.00000000,0.00000000,-207667313611013683196565854544199680.00000000,159.00000000,0.11340357,-0.08311345,9.97566414,-0.02643208,-0.01252668,-0.06145234,0.16760646,0.03625477,-0.47991320,0.01062179,-0.01453597,0.22954124,0.45240304,-0.61843616,10.75545406,0.99936759,0.02870800,0.02097413,0.00060251,0.00423165,-0.00502876,0.01686919,0.00200159,0.00161157,0.00279210,23528348.00000000,-0.00000000,3146434217177513984.00000000,4283.56494141,-5849222089617178624.00000000,283340590244954112.00000000,-15326345216.00000000,0.00000000,73.03144836,-2594362831801417728.00000000,17729922081629812686597420333662208.00000000,0.00000000
0.04067985,-0.04546571,10.00484943,-0.01064225,0.00000000,-0.03405520,0.18658447,0.05447388,-0.44738770,0.00000000,-0.00000000,0.31000000,-0.00100000,0.00500000,0.02900000,0.99943781,0.00375649,0.00303470,-0.03317824,-0.01787165,0.02445749,-0.01019443,-0.23823473,0.32609361,-0.14517629,-0.00790497,0.00143617,-0.05225930,-0.01332040,0.04794654,-0.00552775,-0.00257014,0.00554296,-0.00131267,0.49205029,0.50809127,12.96777058,0.23498520,0.00000000,0.00000000,0.50000000,0.08029500,0.00000000,1.00000000,79.22988892,13.49851990,-98567536.00000000,0.00000000,-207667313611013683196565854544199680.00000000,159.00000000,0.11785312,-0.08195264,9.96249580,-0.02509242,-0.01091787,-0.06005485,0.16872855,0.03752122,-0.47792247,0.01072299,-0.01467449,0.22958748,0.45239323,-0.61845660,10.75543785,0.99936759,0.02870899,0.02097370,0.00060251,0.00426933,-0.00507400,0.01702839,0.00201876,0.00162494,0.00281601,23528348.00000000,-0.00000000,3146434217177513984.00000000,4283.56494141,-5849222089617178624.00000000,283340590244954112.00000000,-15326345216.00000000,0.00000000,73.03144836,-2594362831801417728.00000000,17729922081629812686597420333662208.00000000,0.00000000
-0.11007488,-0.07896676,9.88520241,-0.00851380,0.00000000,-0.03405520,0.18658447,0.05447388,-0.44738770,0.00000000,-0.00000000,0.31000000,-0.00100000,0.00500000,0.02900000,0.99943775,0.00374836,0.00302957,-0.03318144,-0.01810946,0.02478304,-0.01033930,-0.23805098,0.32587990,-0.14502423,-0.00790497,0.00143617,-0.05225930,-0.01332040,0.04794654,-0.00552775,-0.00257014,0.00554296,-0.00131267,0.49278215,0.50738239,12.96791267,0.23494306,0.00000000,0.00000000,0.50000000,0.08129400,0.00000000,1.00000000,79.23030090,13.49430561,-98567536.00000000,0.00000000,-207667313611013683196565854544199680.00000000,159.00000000,0.12163034,-0.08071496,9.95043755,-0.02380686,-0.00940765,-0.05866945,0.16983773,0.03875078,-0.47596827,0.01086568,-0.01486982,0.22965269,0.45237246,-0.61848730,10.75544548,0.99936759,0.02871039,0.02097272,0.00060252,0.00432249,-0.00513783,0.01725298,0.00204298,0.00164381,0.00284974,23528348.00000000,-0.00000000,3146434217177513984.00000000,4283.56494141,-5849222089617178624.00000000,283340590244954112.00000000,-15326345216.00000000,0.00000000,73.03144836,-2594362831801417728.00000000,17729922081629812686597420333662208.00000000,0.00000000
-0.04546571,-0.07178796,9.67701721,-0.01277070,0.00212845,-0.03831211,0.18804932,0.05520630,-0.44506836,0.00000000,-0.00000000,0.31000000,-0.00100000,0.00500000,0.02900000,0.99943769,0.00373867,0.00302380,-0.03318469,-0.01841695,0.02520405,-0.01052659,-0.23780982,0.32560495,-0.14484219,-0.00790497,0.00143617,-0.05225930,-0.01332040,0.04794654,-0.00552775,-0.00257014,0.00554296,-0.00131267,0.49352300,0.50661570,12.96809769,0.23483969,0.00000000,0.00000000,0.50000000,0.08258700,0.00000000,1.00000000,79.23084259,13.48396873,-98567536.00000000,0.00000000,-207667313611013683196565854544199680.00000000,159.00000000,0.12432381,-0.07955872,9.93900394,-0.02257822,-0.00799855,-0.05730110,0.17092918,0.03994152,-0.47405472,0.01105017,-0.01512243,0.22973697,0.45233926,-0.61852968,10.75549221,0.99936754,0.02871223,0.02097109,0.00060251,0.00439129,-0.00522044,0.01754357,0.00207435,0.00166823,0.00289341,23528348.00000000,-0.00000000,3146434217177513984.00000000,4283.56494141,-5849222089617178624.00000000,283340590244954112.00000000,-15326345216.00000000,0.00000000,73.03144836,-2594362831801417728.00000000,17729922081629812686597420333662208.00000000,0.00000000
0.02871519,-0.03110812,9.82537937,-0.01064225,0.00212845,-0.03086253,0.18804932,0.05520630,-0.44506836,0.00000000,-0.00000000,0.31000000,-0.00100000,0.00500000,0.02900000,0.99943769,0.00373379,0.00302109,-0.03318599,-0.01858523,0.02543447,-0.01062907,-0.23767665,0.32545519,-0.14475045,-0.00790497,0.00143617,-0.05225930,-0.01332040,0.04794654,-0.00552775,-0.00257014,0.00554296,-0.00131267,0.49428007,0.50582695,12.96819878,0.23465817,0.00000000,0.00000000,0.50000000,0.08329500,0.00000000,1.00000000,79.23114014,13.46581650,-98567536.00000000,0.00000000,-207667313611013683196565854544199680.00000000,159.00000000,0.12595268,-0.07849156,9.92780495,-0.02141414,-0.00668696,-0.05595733,0.17199859,0.04109284,-0.47218278,0.01115114,-0.01526068,0.22978307,0.45231897,-0.61855423,10.75553703,0.99936754,0.02871324,0.02097006,0.00060250,0.00442896,-0.00526567,0.01770268,0.00209154,0.00168161,0.00291733,23528348.00000000,-0.00000000,3146434217177513984.00000000,4283.56494141,-5849222089617178624.00000000,283340590244954112.00000000,-15326345216.00000000,0.00000000,73.03144836,-2594362831801417728.00000000,17729922081629812686597420333662208.00000000,0.00000000
-0.00000000,0.04067985,9.96177673,-0.01277070,0.00106423,-0.03937633,0.18804932,0.05520630,-0.44506836,0.00000000,-0.00000000,0.31000000,-0.00100000,0.00500000,0.02900000,0.99943769,0.00372747,0.00301785,-0.03318717,-0.01882271,0.02575972,-0.01077370,-0.23748793,0.32524502,-0.14463136,-0.00790497,0.00143617,-0.05225930,-0.01332040,0.04794654,-0.00552775,-0.00257014,0.00554296,-0.00131267,0.49506253,0.50503451,12.96834373,0.23442185,0.00000000,0.00000000,0.50000000,0.08429500,0.00000000,1.00000000,79.23155975,13.44218445,-98567536.00000000,0.00000000,-207667313611013683196565854544199680.00000000,159.00000000,0.12661660,-0.07729704,9.91730404,-0.02031545,-0.00546716,-0.05463654,0.17304227,0.04220339,-0.47035590,0.01129363,-0.01545583,0.22984816,0.45228896,-0.61859107,10.75562668,0.99936754,0.02871471,0.02096849,0.00060249,0.00448215,-0.00532956,0.01792736,0.00211581,0.00170051,0.00295110,23528348.00000000,-0.00000000,3146434217177513984.00000000,4283.56494141,-5849222089617178624.00000000,283340590244954112.00000000,-15326345216.00000000,0.00000000,73.03144836,-2594362831801417728.00000000,17729922081629812686597420333662208.00000000,0.00000000
0.06700210,0.00957173,9.77512741,-0.01064225,-0.00212845,-0.03724788,0.17852783,0.05618286,-0.44940186,0.00000000,-0.00000000,0.31000000,-0.00100000,0.00500000,0.02900000,0.99943769,0.00372001,0.00301437,-0.03318787,-0.01912900,0.02617926,-0.01096024,-0.23724458,0.32497597,-0.14448997,-0.00790497,0.00143617,-0.05225930,-0.01332040,0.04794654,-0.00552775,-0.00257014,0.00554296,-0.00131267,0.49587756,0.50425452,12.96852779,0.23415309,0.00000000,0.00000000,0.50000000,0.08558600,0.00000000,1.00000000,79.23210144,13.41530895,-98567536.00000000,0.00000000,-207667313611013683196565854544199680.00000000,159.00000000,0.12641114,-0.07578161,9.90771103,-0.01927969,-0.00433716,-0.05334934,0.17404753,0.04327273,-0.46858370,0.01147740,-0.01570756,0.22993210,0.45225036,-0.61864239,10.75577259,0.99936754,0.02871670,0.02096642,0.00060247,0.00455081,-0.00541203,0.01821739,0.00214716,0.00172490,0.00299471,23528348.00000000,-0.00000000,3146434217177513984.00000000,4283.56494141,-5849222089617178624.00000000,283340590244954112.00000000,-15326345216.00000000,0.00000000,73.03144836,-2594362831801417728.00000000,17729922081629812686597420333662208.00000000,0.00000000
0.13161127,-0.00478586,9.59805107,-0.00957803,-0.01170648,-0.03299098,0.17852783,0.05618286,-0.44940186,0.00000000,-0.00000000,0.31000000,-0.00100000,0.00500000,0.02900000,0.99943769,0.00371627,0.00301281,-0.03318781,-0.01929711,0.02640956,-0.01106263,-0.23711137,0.32482961,-0.14441895,-0.00790497,0.00143617,-0.05225930,-0.01332040,0.04794654,-0.00552775,-0.00257014,0.00554296,-0.00131267,0.49672669,0.50352079,12.96863079,0.23382249,0.00000000,0.00000000,0.50000000,0.08629500,0.00000000,1.00000000,79.23239899,13.38224888,-98567536.00000000,0.00000000,-207667313611013683196565854544199680.00000000,159.00000000,0.12575275,-0.07396109,9.89833736,-0.01830243,-0.00330976,-0.05209775,0.17499469,0.04430183,-0.46687841,0.01157827,-0.01584574,0.22997817,0.45222986,-0.61867297,10.75586987,0.99936748,0.02871786,0.02096527,0.00060246,0.00458851,-0.00545732,0.01837666,0.00216439,0.00173830,0.00301866,23528348.00000000,-0.00000000,3146434217177513984.00000000,4283.56494141,-5849222089617178624.00000000,283340590244954112.00000000,-15326345216.00000000,0.00000000,73.03144836,-2594362831801417728.00000000,17729922081629812686597420333662208.00000000,0.00000000
0.23450735,-0.03350105,9.70333958,-0.01170648,-0.01596338,-0.03724788,0.17852783,0.05618286,-0.44940186,0.00000000,-0.00000000,0.31000000,-0.00100000,0.00500000,0.02900000,0.99943775,0.00371147,0.00301104,-0.03318711,-0.01953403,0.02673419,-0.01120696,-0.23692396,0.32462543,-0.14432839,-0.00790497,0.00143617,-0.05225930,-0.01332040,0.04794654,-0.00552775,-0.00257014,0.00554296,-0.00131267,0.49761304,0.50286478,12.96877670,0.23345265,0.00000000,0.00000000,0.50000000,0.08729500,0.00000000,1.00000000,79.23281860,13.34526443,-98567536.00000000,0.00000000,-207667313611013683196565854544199680.00000000,159.00000000,0.12523574,-0.07193597,9.88872433,-0.01738244,-0.00241149,-0.05088036,0.17587604,0.04529043,-0.46524629,0.01172042,-0.01604052,0.23004314,0.45220155,-0.61871988,10.75603008,0.99936748,0.02871961,0.02096364,0.00060245,0.00464168,-0.00552120,0.01860128,0.00218868,0.00175720,0.00305244,23528348.00000000,-0.00000000,3146434217177513984.00000000,4283.56494141,-5849222089617178624.00000000,283340590244954112.00000000,-15326345216.00000000,0.00000000,73.03144836,-2594362831801417728.00000000,17729922081629812686597420333662208.00000000,0.00000000
0.20339923,-0.04546571,9.89477444,-0.01383493,-0.01809183,-0.04044056,0.17797852,0.05502319,-0.44952393,0.00000000,-0.00000000,0.31000000,-0.00100000,0.00500000,0.02900000,0.99943781,0.00370584,0.00300922,-0.03318546,-0.01983983,0.02715327,-0.01139329,-0.23668180,0.32436460,-0.14422350,-0.00790497,0.00143617,-0.05225930,-0.01332040,0.04794654,-0.00552775,-0.00257014,0.00554296,-0.00131267,0.49854282,0.50232631,12.96896839,0.23308498,0.00000000,0.00000000,0.50000000,0.08858700,0.00000000,1.00000000,79.23338318,13.30849743,-98567536.00000000,0.00000000,-207667313611013683196565854544199680.00000000,159.00000000,0.12520772,-0.06980982,9.87932014,-0.01652637,-0.00166234,-0.04971414,0.17668793,0.04623610,-0.46369109,0.01190390,-0.01629196,0.23012698,0.45216459,-0.61878556,10.75626755,0.99936748,0.02872202,0.02096146,0.00060244,0.00471036,-0.00560373,0.01889148,0.00222008,0.00178162,0.00309607,23528348.00000000,-0.00000000,3146434217177513984.00000000,4283.56494141,-5849222089617178624.00000000,283340590244954112.00000000,-15326345216.00000000,0.00000000,73.03144836,-2594362831801417728.00000000,17729922081629812686597420333662208.00000000,0.00000000
0.00957173,-0.16271938,9.82777214,-0.01383493,-0.02341295,-0.04576168,0.17797852,0.05502319,-0.44952393,0.00000000,-0.00000000,0.31000000,-0.00100000,0.00500000,0.02900000,0.99943787,0.00370305,0.00300842,-0.03318416,-0.02000730,0.02738282,-0.01149537,-0.23654892,0.32422316,-0.14417221,-0.00790497,0.00143617,-0.05225930,-0.01332040,0.04794654,-0.00552775,-0.00257014,0.00554296,-0.00131267,0.49952009,0.50196213,12.96907520,0.23274159,0.00000000,0.00000000,0.50000000,0.08929500,0.00000000,1.00000000,79.23369598,13.27415943,-98567536.00000000,0.00000000,-207667313611013683196565854544199680.00000000,159.00000000,0.12539953,-0.06783229,9.87057304,-0.01573815,-0.00107621,-0.04861859,0.17742254,0.04713589,-0.46221796,0.01200438,-0.01642969,0.23017290,0.45214391,-0.61882406,10.75641346,0.99936748,0.02872341,0.02096022,0.00060243,0.00474799,-0.00564896,0.01905050,0.00223729,0.00179500,0.00311999,23528348.00000000,-0.00000000,3146434217177513984.00000000,4283.56494141,-5849222089617178624.00000000,283340590244954112.00000000,-15326345216.00000000,0.00000000,73.03144836,-2594362831801417728.00000000,17729922081629812686597420333662208.00000000,0.00000000
-0.10768194,0.25125787,10.54325867,-0.00000000,-0.02766985,-0.06704619,0.17797852,0.05502319,-0.44952393,0.00000000,-0.00000000,0.31000000,-0.00100000,0.00500000,0.02900000,0.99943799,0.00369947,0.00300748,-0.03318184,-0.02024366,0.02770684,-0.01163948,-0.23636140,0.32402551,-0.14410707,-0.00790497,0.00143617,-0.05225930,-0.01332040,0.04794654,-0.00552775,-0.00257014,0.00554296,-0.00131267,0.50054407,0.50182402,12.96922398,0.23254374,0.00000000,0.00000000,0.50000000,0.09029500,0.00000000,1.00000000,79.23413086,13.25437355,-98567536.00000000,0.00000000,-207667313611013683196565854544199680.00000000,159.00000000,0.12514120,-0.06583763,9.86323929,-0.01499900,-0.00066813,-0.04763001,0.17807880,0.04798857,-0.46082869,0.01214620,-0.01662411,0.23023775,0.45211479,-0.61888212,10.75663757,0.99936742,0.02872550,0.02095843,0.00060242,0.00480114,-0.00571284,0.01927511,0.00226161,0.00181389,0.00315376,23528348.00000000,-0.00000000,3146434217177513984.00000000,4283.56494141,-5849222089617178624.00000000,283340590244954112.00000000,-15326345216.00000000,0.00000000,73.03144836,-2594362831801417728.00000000,17729922081629812686597420333662208.00000000,0.00000000
0.76573831,1.11510634,10.54325867,0.01809183,-0.03086253,-0.06491774,0.17822266,0.05703735,-0.45086670,0.00000000,-0.00000000,0.31000000,-0.00100000,0.00500000,0.02900000,0.99943811,0.00369535,0.00300639,-0.03317831,-0.02054849,0.02812484,-0.01182542,-0.23611914,0.32377541,-0.14402868,-0.00790497,0.00143617,-0.05225930,-0.01332040,0.04794654,-0.00552775,-0.00257014,0.00554296,-0.00131267,0.50158995,0.50196648,12.96940613,0.23260473,0.00000000,0.00000000,0.50000000,0.09158600,0.00000000,1.00000000,79.23465729,13.26047230,-98567536.00000000,0.00000000,-207667313611013683196565854544199680.00000000,159.00000000,0.12508082,-0.06202394,9.85879707,-0.01425576,-0.00044460,-0.04679388,0.17866452,0.04879615,-0.45952243,0.01232910,-0.01687490,0.23032144,0.45207655,-0.61896586,10.75694084,0.99936742,0.02872857,0.02095606,0.00060242,0.00486974,-0.00579531,0.01956508,0.00229301,0.00183829,0.00319735,23528348.00000000,-0.00000000,3146434217177513984.00000000,4283.56494141,-5849222089617178624.00000000,283340590244954112.00000000,-15326345216.00000000,0.00000000,73.03144836,-2594362831801417728.00000000,17729922081629812686597420333662208.00000000,0.00000000
-0.89974248,0.42833486,8.29150963,0.01383493,-0.04576168,-0.01702760,0.17822266,0.05703735,-0.45086670,0.00000000,-0.00000000,0.31000000,-0.00100000,0.00500000,0.02900000,0.99943817,0.00369336,0.00300579,-0.03317611,-0.02071557,0.02835398,-0.01192736,-0.23598602,0.32364321,-0.14398821,-0.00790497,0.00143617,-0.05225930,-0.01332040,0.04794654,-0.00552775,-0.00257014,0.00554296,-0.00131267,0.50260854,0.50245655,12.96949959,0.23278189,0.00000000,0.00000000,0.50000000,0.09229400,0.00000000,1.00000000,79.23493195,13.27818871,-98567536.00000000,0.00000000,-207667313611013683196565854544199680.00000000,159.00000000,0.12500302,-0.05506371,9.85519886,-0.01346528,-0.00041667,-0.04606487,0.17919017,0.04956228,-0.45829806,0.01242934,-0.01701239,0.23036730,0.45205498,-0.61902058,10.75711346,0.99936736,0.02873065,0.02095472,0.00060242,0.00490735,-0.00584053,0.01972410,0.00231023,0.00185166,0.00322126,23528348.00000000,-0.00000000,3146434217177513984.00000000,4283.56494141,-5849222089617178624.00000000,283340590244954112.00000000,-15326345216.00000000,0.00000000,73.03144836,-2594362831801417728.00000000,17729922081629812686597420333662208.00000000,0.00000000
-0.92367178,-0.44747829,7.41569662,0.01277070,-0.05321126,0.01064225,0.17822266,0.05703735,-0.45086670,0.00000000,-0.00000000,0.31000000,-0.00100000,0.00500000,0.02900000,0.99943835,0.00369098,0.00300483,-0.03317264,-0.02095161,0.02867777,-0.01207144,-0.23580049,0.32346478,-0.14393952,-0.00790497,0.00143617,-0.05225930,-0.01332040,0.04794654,-0.00552775,-0.00257014,0.00554296,-0.00131267,0.50355846,0.50336426,12.96963882,0.23276493,0.00000000,0.00000000,0.50000000,0.09329500,0.00000000,1.00000000,79.23533630,13.27649307,-98567536.00000000,0.00000000,-207667313611013683196565854544199680.00000000,159.00000000,0.12185256,-0.04690278,9.84658337,-0.01262495,-0.00061104,-0.04530695,0.17966206,0.05028862,-0.45715395,0.01257096,-0.01720666,0.23043214,0.45202914,-0.61911309,10.75737858,0.99936730,0.02873422,0.02095299,0.00060245,0.00496053,-0.00590448,0.01994895,0.00233459,0.00187058,0.00325506,23528348.00000000,-0.00000000,3146434217177513984.00000000,4283.56494141,-5849222089617178624.00000000,283340590244954112.00000000,-15326345216.00000000,0.00000000,73.03144836,-2594362831801417728.00000000,17729922081629812686597420333662208.00000000,0.00000000
-0.19861336,-0.75377363,9.53344154,0.01064225,-0.03724788,-0.02660563,0.17803955,0.05984497,-0.44818115,0.00000000,-0.00000000,0.31000000,-0.00100000,0.00500000,0.02900000,0.99943852,0.00368847,0.00300331,-0.03316761,-0.02125596,0.02909540,-0.01225736,-0.23556921,0.32324392,-0.14389522,-0.00790497,0.00143617,-0.05225930,-0.01332040,0.04794654,-0.00552775,-0.00257014,0.00554296,-0.00131267,0.50440174,0.50475752,12.96985435,0.23244971,0.00000000,0.00000000,0.50000000,0.09458700,0.00000000,1.00000000,79.23596191,13.24497032,-98567536.00000000,0.00000000,-207667313611013683196565854544199680.00000000,159.00000000,0.11517417,-0.04018449,9.83214664,-0.01173638,-0.00102160,-0.04447477,0.18008082,0.05097983,-0.45608649,0.01275358,-0.01745724,0.23051579,0.45201015,-0.61924911,10.75776672,0.99936718,0.02873949,0.02095134,0.00060251,0.00502916,-0.00598702,0.02023919,0.00236604,0.00189499,0.00329867,23528348.00000000,-0.00000000,3146434217177513984.00000000,4283.56494141,-5849222089617178624.00000000,283340590244954112.00000000,-15326345216.00000000,0.00000000,73.03144836,-2594362831801417728.00000000,17729922081629812686597420333662208.00000000,0.00000000
0.06700210,-0.61259061,10.28721523,0.01596338,-0.01383493,-0.05108281,0.17803955,0.05984497,-0.44818115,0.00000000,-0.00000000,0.31000000,-0.00100000,0.00500000,0.02900000,0.99943864,0.00368742,0.00300226,-0.03316456,-0.02142266,0.02932417,-0.01235922,-0.23544790,0.32312649,-0.14388189,-0.00790497,0.00143617,-0.05225930,-0.01332040,0.04794654,-0.00552775,-0.00257014,0.00554296,-0.00131267,0.50508654,0.50667059,12.96999359,0.23202337,0.00000000,0.00000000,0.50000000,0.09529500,0.00000000,1.00000000,79.23637390,13.20233727,-98567536.00000000,0.00000000,-207667313611013683196565854544199680.00000000,159.00000000,0.10728865,-0.03573201,9.81661320,-0.01079065,-0.00157785,-0.04364879,0.18044525,0.05164435,-0.45509046,0.01285360,-0.01759450,0.23056163,0.45200944,-0.61933005,10.75800705,0.99936712,0.02874259,0.02095084,0.00060256,0.00506676,-0.00603225,0.02039826,0.00238327,0.00190836,0.00332257,23528348.00000000,-0.00000000,3146434217177513984.00000000,4283.56494141,-5849222089617178624.00000000,283340590244954112.00000000,-15326345216.00000000,0.00000000,73.03144836,-2594362831801417728.00000000,17729922081629812686597420333662208.00000000,0.00000000
0.34458223,-0.53601682,10.22499943,0.02766985,-0.01596338,-0.00851380,0.17803955,0.05984497,-0.44818115,0.00000000,-0.00000000,0.31000000,-0.00100000,0.00500000,0.02900000,0.99943882,0.00368644,0.00300046,-0.03315985,-0.02165771,0.02964681,-0.01250296,-0.23528470,0.32296336,-0.14387773,-0.00790497,0.00143617,-0.05225930,-0.01332040,0.04794654,-0.00552775,-0.00257014,0.00554296,-0.00131267,0.50556523,0.50910461,12.97022152,0.23149683,0.00000000,0.00000000,0.50000000,0.09629400,0.00000000,1.00000000,79.23703003,13.14968204,-98567536.00000000,0.00000000,-207667313611013683196565854544199680.00000000,159.00000000,0.09928459,-0.03385971,9.80186844,-0.00977430,-0.00220890,-0.04282074,0.18075684,0.05228531,-0.45416251,0.01299463,-0.01778809,0.23062633,0.45202258,-0.61944866,10.75838280,0.99936694,0.02874709,0.02095070,0.00060265,0.00511981,-0.00609608,0.02062274,0.00240760,0.00192724,0.00335629,23528348.00000000,-0.00000000,3146434217177513984.00000000,4283.56494141,-5849222089617178624.00000000,283340590244954112.00000000,-15326345216.00000000,0.00000000,73.03144836,-2594362831801417728.00000000,17729922081629812686597420333662208.00000000,0.00000000
1.86888003,0.22732855,10.66051292,0.04150478,-0.03831211,0.03618366,0.18090820,0.05960083,-0.44543457,0.00000000,-0.00000000,0.31000000,-0.00100000,0.00500000,0.02900000,0.99943906,0.00368588,0.00299764,-0.03315313,-0.02196143,0.03006381,-0.01268886,-0.23508126,0.32275224,-0.14388996,-0.00790497,0.00143617,-0.05225930,-0.01332040,0.04794654,-0.00552775,-0.00257014,0.00554296,-0.00131267,0.50578070,0.51206362,12.97054958,0.23047456,0.00000000,0.00000000,0.50000000,0.09758600,0.00000000,1.00000000,79.23799133,13.04745579,-98567536.00000000,0.00000000,-207667313611013683196565854544199680.00000000,159.00000000,0.09355573,-0.03446340,9.78819752,-0.00866596,-0.00291229,-0.04183744,0.18102403,0.05290162,-0.45329541,0.01317686,-0.01803829,0.23070998,0.45205304,-0.61960155,10.75891304,0.99936682,0.02875275,0.02095106,0.00060278,0.00518842,-0.00617863,0.02091313,0.00243907,0.00195166,0.00339988,23528348.00000000,-0.00000000,3146434217177513984.00000000,4283.56494141,-5849222089617178624.00000000,283340590244954112.00000000,-15326345216.00000000,0.00000000,73.03144836,-2594362831801417728.00000000,17729922081629812686597420333662208.00000000,0.00000000
-1.10074878,-0.64130580,9.53822708,0.02447718,-0.06811041,0.14154194,0.18090820,0.05960083,-0.44543457,0.00000000,-0.00000000,0.31000000,-0.00100000,0.00500000,0.02900000,0.99943918,0.00368598,0.00299579,-0.03314897,-0.02212803,0.03029256,-0.01279089,-0.23497184,0.32263455,-0.14390452,-0.00790497,0.00143617,-0.05225930,-0.01332040,0.04794654,-0.00552775,-0.00257014,0.00554296,-0.00131267,0.50567174,0.51556790,12.97074604,0.22838035,0.00000000,0.00000000,0.50000000,0.09829500,0.00000000,1.00000000,79.23856354,12.83803463,-98567536.00000000,0.00000000,-207667313611013683196565854544199680.00000000,159.00000000,0.09069654,-0.03734286,9.77713776,-0.00746985,-0.00374122,-0.04048336,0.18125895,0.05349237,-0.45247751,0.01327682,-0.01817554,0.23075591,0.45207363,-0.61968207,10.75922394,0.99936670,0.02875565,0.02095140,0.00060285,0.00522607,-0.00622393,0.02107251,0.00245634,0.00196506,0.00342380,23528348.00000000,-0.00000000,3146434217177513984.00000000,4283.56494141,-5849222089617178624.00000000,283340590244954112.00000000,-15326345216.00000000,0.00000000,73.03144836,-2594362831801417728.00000000,17729922081629812686597420333662208.00000000,0.00000000
0.54798144,-1.16296506,8.29390240,0.00319268,-0.06704619,0.19262475,0.18090820,0.05960083,-0.44543457,0.00000000,-0.00000000,0.31000000,-0.00100000,0.00500000,0.02900000,0.99943942,0.00368673,0.00299265,-0.03314211,-0.02236285,0.03061502,-0.01293483,-0.23482037,0.32246250,-0.14393459,-0.00790497,0.00143617,-0.05225930,-0.01332040,0.04794654,-0.00552775,-0.00257014,0.00554296,-0.00131267,0.50521600,0.51966691,12.97104073,0.22461908,0.00000000,0.00000000,0.50000000,0.09929500,0.00000000,1.00000000,79.23942566,12.46190739,-98567536.00000000,0.00000000,-207667313611013683196565854544199680.00000000,159.00000000,0.08837391,-0.04360310,9.76763058,-0.00624376,-0.00473757,-0.03850667,0.18146783,0.05405693,-0.45170349,0.01341771,-0.01836901,0.23082066,0.45210767,-0.61978453,10.75968552,0.99936658,0.02875916,0.02095207,0.00060295,0.00527917,-0.00628782,0.02129736,0.00248070,0.00198396,0.00345754,23528348.00000000,-0.00000000,3146434217177513984.00000000,4283.56494141,-5849222089617178624.00000000,283340590244954112.00000000,-15326345216.00000000,0.00000000,73.03144836,-2594362831801417728.00000000,17729922081629812686597420333662208.00000000,0.00000000
0.45226416,-2.02442050,9.94502640,-0.02341295,-0.04044056,0.12025744,0.17803955,0.05850220,-0.44525146,0.00000000,-0.00000000,0.31000000,-0.00100000,0.00500000,0.02900000,0.99943978,0.00368844,0.00298783,-0.03313152,-0.02266599,0.03103134,-0.01312086,-0.23462605,0.32222602,-0.14398530,-0.00790497,0.00143617,-0.05225930,-0.01332040,0.04794654,-0.00552775,-0.00257014,0.00554296,-0.00131267,0.50442851,0.52439642,12.97144604,0.21901368,0.00000000,0.00000000,0.50000000,0.10058700,0.00000000,1.00000000,79.24060059,11.90136719,-98567536.00000000,0.00000000,-207667313611013683196565854544199680.00000000,159.00000000,0.08816859,-0.05467378,9.75853634,-0.00507034,-0.00587718,-0.03582374,0.18164894,0.05459329,-0.45097324,0.01359959,-0.01861880,0.23090437,0.45215392,-0.61989099,10.76031208,0.99936646,0.02876241,0.02095298,0.00060304,0.00534776,-0.00637037,0.02158797,0.00251218,0.00200840,0.00350110,23528348.00000000,-0.00000000,3146434217177513984.00000000,4283.56494141,-5849222089617178624.00000000,283340590244954112.00000000,-15326345216.00000000,0.00000000,73.03144836,-2594362831801417728.00000000,17729922081629812686597420333662208.00000000,0.00000000
-0.40201259,-1.61762214,10.34703827,-0.01596338,0.00744958,0.03511943,0.17803955,0.05850220,-0.44525146,0.00000000,-0.00000000,0.31000000,-0.00100000,0.00500000,0.02900000,0.99906576,-0.00589281,-0.00577571,-0.04242222,0.00007751,-0.00058457,-0.00023638,0.00136256,-0.00684569,-0.00303033,-0.00790497,0.00143618,-0.05225930,-0.01332041,0.04794655,-0.00552827,-0.00257014,0.00554296,-0.00131267,0.50335020,0.52972680,12.97167683,0.21204849,0.00000000,0.00000000,0.50000000,0.10129500,0.00000000,1.00000000,79.24127960,11.20484829,-98567536.00000000,0.00000000,-207667313611013683196565854544199680.00000000,159.00000000,0.09000614,-0.07122535,9.75126839,-0.00400896,-0.00706487,-0.03262151,0.18179786,0.05509843,-0.45028657,-0.00004650,0.00035074,0.22510637,0.00281108,0.00658515,10.39352703,0.99999994,-0.00031679,0.00013523,-0.00000004,0.00534739,-0.00636843,0.02168489,0.00251612,0.00201257,0.00353114,23528348.00000000,-0.00000000,3146434217177513984.00000000,4283.56494141,-5849222089617178624.00000000,283340590244954112.00000000,-15326345216.00000000,0.00000000,73.03144836,-2594362831801417728.00000000,17729922081629812686597420333662208.00000000,0.00000000
