accel_x,accel_y,accel_z,gyro_yaw,gyro_pitch,gyro_roll,mag_x,mag_y,mag_z,gps_pos_north,gps_pos_west,gps_pos_up,gps_vel_north,gps_vel_west,gps_vel_up,state_q_vec_w,state_q_vec_x,state_q_vec_y,state_q_vec_z,state_pos_north,state_pos_west,state_pos_up,state_vel_north,state_vel_west,state_vel_up,gyro_bias_yaw,gyro_bias_pitch,gyro_bias_roll,accel_bias_x,accel_bias_y,accel_bias_z,mag_bias_x,mag_bias_y,mag_bias_z,gimbal_yaw_raw,gimbal_pitch_raw,thrust_N,roll_rad_sec_squared,target_pos_north,target_pos_west,target_pos_up,elapsed_time,GND_flag,flight_armed,thrust_perc,diffy_perc,rtk_status,gps_hor_prec,gps_ver_prec,gps_sat_count,filtered_accel_x,filtered_accel_y,filtered_accel_z,filtered_gyro_x,filtered_gyro_y,filtered_gyro_z,filtered_mag_x,filtered_mag_y,filtered_mag_z,velocity_target_x,velocity_target_y,velocity_target_z,accel_target_x,accel_target_y,accel_target_z,attitude_target[0],attitude_target[1],attitude_target[2],attitude_target[3],velocity_integrator_x,velocity_integrator_y,velocity_integrator_z,attitude_integrator_x,attitude_integrator_y,attitude_integrator_z,posCovNN,posCovNE,posCovND,posCovEE,posCovED,posCovDD,velCovNN,velCovNE,velCovND,velCovEE,velCovED,velCovDD
0.11007488,0.25365081,9.80384254,-0.00744958,0.00000000,-0.03618366,0.22579956,0.09280396,-0.48800659,0.00000000,0.00000000,0.31000000,0.00000000,0.00000000,0.00000000,0.99216318,0.00891505,-0.00098529,-0.12462645,0.00036746,0.00241906,0.00002310,-0.20235167,0.34454897,0.00421649,-0.00800996,0.00028171,-0.03861410,0.10876080,0.08345604,-0.00111344,0.02427820,0.02872393,0.01612818,0.00000000,0.00000000,0.00000000,0.00000000,0.00000000,0.00000000,0.00000000,0.00121300,0.00000000,1.00000000,0.00000000,0.00000000,-1459620352.00000000,0.00000000,-0.00000000,99.00000000,0.99891597,0.99909085,1.01072383,0.99877280,0.99878186,0.99873787,0.99905688,0.99889499,0.99818748,-0.00022048,-0.00145143,-0.00000924,0.36392930,-0.62291282,9.80150032,0.99932516,0.03172296,0.01850874,0.00058755,0.00009318,-0.00011213,-0.00000511,-0.07997543,-0.08997173,0.00015154,22217612.00000000,-0.00000000,3146443013270536192.00000000,-4283.58056641,-3212832624867278848.00000000,2268976521773318144.00000000,-15326346240.00000000,0.00000000,75.03144836,-40536884887158784.00000000,17729961695711069818766217105637376.00000000,0.00000000
0.11007488,0.23211442,9.79666424,-0.00957803,0.00212845,-0.04150478,0.22579956,0.09280396,-0.48800659,0.00000000,-0.00000000,0.31000000,-0.00200000,0.00300000,-0.01500000,0.99226803,0.00985041,-0.00027556,-0.12372184,0.00026119,0.00390436,0.00002275,-0.21188347,0.36189577,-0.00952744,-0.00800996,0.00028171,-0.03861410,0.10876080,0.08345604,-0.00111344,0.02427820,0.02872393,0.01612818,-0.10045093,-0.07506297,12.48719978,0.52359879,0.00000000,0.00000000,1.00000000,0.00291400,0.00000000,1.00000000,77.82901764,30.00000000,-1459620352.00000000,0.00000000,-0.00000000,99.00000000,0.99484724,0.99565238,1.05096555,0.99416417,0.99421245,0.99399406,0.99551719,0.99474746,0.99138445,-0.00015671,-0.00234262,0.39999089,0.38131034,-0.65587872,10.70271397,0.99937391,0.03059289,0.01776362,0.00054378,0.00020221,-0.00024963,0.00027352,-0.07994428,-0.08993483,0.00036246,22217612.00000000,-0.00000000,3146443013270536192.00000000,-4283.58056641,-3212832624867278848.00000000,2268976521773318144.00000000,-15326346240.00000000,0.00000000,75.03144836,-40536884887158784.00000000,17729961695711069818766217105637376.00000000,0.00000000
0.11007488,0.24407908,9.80144978,-0.00851380,0.00212845,-0.04150478,0.22439575,0.09310913,-0.48770142,0.00000000,-0.00000000,0.31000000,-0.00200000,0.00300000,-0.01500000,0.99232173,0.01036041,0.00011345,-0.12324943,0.00006695,0.00423821,0.00000663,-0.21089734,0.36248514,-0.01750169,-0.00800996,0.00028171,-0.03861410,0.10876080,0.08345604,-0.00111344,0.02427820,0.02872393,0.01612818,-0.19836460,-0.14680405,12.48738861,0.52359879,0.00000000,0.00000000,1.00000000,0.00383500,0.00000000,1.00000000,77.82956696,30.00000000,-1459620352.00000000,0.00000000,-0.00000000,99.00000000,0.98723716,0.98918611,1.12622297,0.98554063,0.98567075,0.98510897,0.98889494,0.98699015,0.97866046,-0.00004017,-0.00254293,0.39999735,0.37980518,-0.65737528,10.72042561,0.99937510,0.03061203,0.01766431,0.00054108,0.00026229,-0.00032474,0.00042733,-0.07992784,-0.08991531,0.00047623,22217612.00000000,-0.00000000,3146443013270536192.00000000,-4283.58056641,-3212832624867278848.00000000,2268976521773318144.00000000,-15326346240.00000000,0.00000000,75.03144836,-40536884887158784.00000000,17729961695711069818766217105637376.00000000,0.00000000
0.12203954,0.25604373,9.81580734,-0.00851380,0.00212845,-0.03831211,0.22439575,0.09310913,-0.48770142,0.00000000,-0.00000000,0.31000000,-0.00200000,0.00300000,-0.01500000,0.99234974,0.01062942,0.00031866,-0.12300020,-0.00003655,0.00441671,-0.00000405,-0.21037701,0.36279565,-0.02170803,-0.00800996,0.00028171,-0.03861410,0.10876080,0.08345604,-0.00111344,0.02427820,0.02872393,0.01612818,-0.29372853,-0.21543446,12.48749733,0.52359879,0.00000000,0.00000000,1.00000000,0.00432700,0.00000000,1.00000000,77.82987976,30.00000000,-1459620352.00000000,0.00000000,-0.00000000,99.00000000,0.97623587,0.97983187,1.23517632,0.97305661,0.97331065,0.97224110,0.97930509,0.97576207,0.96024305,0.00002193,-0.00265003,0.40000162,0.37901258,-0.65816718,10.72977161,0.99937570,0.03062221,0.01761211,0.00053966,0.00029451,-0.00036498,0.00051032,-0.07991918,-0.08990502,0.00053689,22217612.00000000,-0.00000000,3146443013270536192.00000000,-4283.58056641,-3212832624867278848.00000000,2268976521773318144.00000000,-15326346240.00000000,0.00000000,75.03144836,-40536884887158784.00000000,17729961695711069818766217105637376.00000000,0.00000000
0.12682541,0.25843668,9.82537937,-0.00851380,0.00425690,-0.04363323,0.22439575,0.09310913,-0.48770142,0.00000000,-0.00000000,0.31000000,-0.00200000,0.00300000,-0.01500000,0.99237698,0.01089281,0.00051957,-0.12275618,-0.00013939,0.00459463,-0.00001670,-0.20986728,0.36309910,-0.02582622,-0.00800996,0.00028171,-0.03861410,0.10876080,0.08345604,-0.00111344,0.02427820,0.02872393,0.01612818,-0.38654077,-0.28114578,12.48760986,0.52359879,0.00000000,0.00000000,1.00000000,0.00481700,0.00000000,1.00000000,77.83021545,30.00000000,-1459620352.00000000,0.00000000,-0.00000000,99.00000000,0.96161979,0.96741509,1.38039458,0.95642453,0.95684797,0.95509464,0.96652502,0.96080351,0.93570608,0.00008363,-0.00275678,0.40000668,0.37823829,-0.65894568,10.73892689,0.99937630,0.03063230,0.01756117,0.00053827,0.00032664,-0.00040513,0.00059378,-0.07991068,-0.08989488,0.00059718,22217612.00000000,-0.00000000,3146443013270536192.00000000,-4283.58056641,-3212832624867278848.00000000,2268976521773318144.00000000,-15326346240.00000000,0.00000000,75.03144836,-40536884887158784.00000000,17729961695711069818766217105637376.00000000,0.00000000
0.12682541,0.25604373,9.81820011,-0.00744958,0.00319268,-0.04682591,0.22439575,0.09310913,-0.48770142,0.00000000,-0.00000000,0.31000000,-0.00200000,0.00300000,-0.01500000,0.99240339,0.01114947,0.00071537,-0.12251836,-0.00024156,0.00477196,-0.00003127,-0.20937012,0.36339405,-0.02983928,-0.00800996,0.00028171,-0.03861410,0.10876080,0.08345604,-0.00111344,0.02427820,0.02872393,0.01612818,-0.47680536,-0.34411976,12.48772812,0.52359879,0.00000000,0.00000000,1.00000000,0.00530500,0.00000000,1.00000000,77.83055878,30.00000000,-1459620352.00000000,0.00000000,-0.00000000,99.00000000,0.94342756,0.95195597,1.56169200,0.93566841,0.93630970,0.93367904,0.95057285,0.94213545,0.90508401,0.00014494,-0.00286318,0.40001249,0.37748578,-0.65970814,10.74785233,0.99937689,0.03064227,0.01751170,0.00053693,0.00035868,-0.00044519,0.00067769,-0.07990233,-0.08988491,0.00065711,22217612.00000000,-0.00000000,3146443013270536192.00000000,-4283.58056641,-3212832624867278848.00000000,2268976521773318144.00000000,-15326346240.00000000,0.00000000,75.03144836,-40536884887158784.00000000,17729961695711069818766217105637376.00000000,0.00000000
0.13879006,0.25604373,9.80862904,-0.00744958,0.00000000,-0.03724788,0.22055054,0.09915161,-0.48764038,0.00000000,-0.00000000,0.31000000,-0.00200000,0.00300000,-0.01500000,0.99247038,0.01180743,0.00121736,-0.12190866,-0.00050875,0.00523953,-0.00008279,-0.20809343,0.36414650,-0.04012680,-0.00800996,0.00028171,-0.03861410,0.10876080,0.08345604,-0.00111344,0.02427820,0.02872393,0.01612818,-0.56454325,-0.40449241,12.48804665,0.52359879,0.00000000,0.00000000,1.00000000,0.00658900,0.00000000,1.00000000,77.83148193,30.00000000,-1459620352.00000000,0.00000000,-0.00000000,99.00000000,0.92224300,0.93392998,1.77343142,0.91143358,0.91232890,0.90865660,0.93193740,0.92034411,0.86932623,0.00030525,-0.00314372,0.40003309,0.37556061,-0.66167331,10.77075577,0.99937832,0.03066820,0.01738539,0.00053351,0.00044299,-0.00055090,0.00090376,-0.07988112,-0.08985952,0.00081400,22217612.00000000,-0.00000000,3146443013270536192.00000000,-4283.58056641,-3212832624867278848.00000000,2268976521773318144.00000000,-15326346240.00000000,0.00000000,75.03144836,-40536884887158784.00000000,17729961695711069818766217105637376.00000000,0.00000000
0.13400421,0.25365081,9.81102180,-0.00744958,-0.00106423,-0.03405520,0.22055054,0.09915161,-0.48764038,0.00000000,-0.00000000,0.31000000,-0.00200000,0.00300000,-0.01500000,0.99250585,0.01215968,0.00148612,-0.12158222,-0.00065560,0.00549763,-0.00011510,-0.20740859,0.36454719,-0.04563417,-0.00800996,0.00028171,-0.03861410,0.10876080,0.08345604,-0.00111344,0.02427820,0.02872393,0.01612818,-0.64976209,-0.46244100,12.48822689,0.52359879,0.00000000,0.00000000,1.00000000,0.00729700,0.00000000,1.00000000,77.83200836,30.00000000,-1459620352.00000000,0.00000000,-0.00000000,99.00000000,0.89894480,0.91406715,2.00712514,0.88469160,0.88585752,0.88105178,0.91135573,0.89631552,0.82986492,0.00039336,-0.00329858,0.40004608,0.37453321,-0.66273177,10.78302670,0.99937904,0.03068229,0.01731812,0.00053169,0.00048970,-0.00060942,0.00102997,-0.07986966,-0.08984575,0.00090029,22217612.00000000,-0.00000000,3146443013270536192.00000000,-4283.58056641,-3212832624867278848.00000000,2268976521773318144.00000000,-15326346240.00000000,0.00000000,75.03144836,-40536884887158784.00000000,17729961695711069818766217105637376.00000000,0.00000000
0.10768194,0.24407908,9.82059383,-0.00744958,0.00000000,-0.04044056,0.22055054,0.09915161,-0.48764038,0.00000000,-0.00000000,0.31000000,-0.00200000,0.00300000,-0.01500000,0.99255371,0.01264134,0.00185365,-0.12113579,-0.00086207,0.00586272,-0.00016826,-0.20646955,0.36509100,-0.05316450,-0.00800996,0.00028171,-0.03861410,0.10876080,0.08345604,-0.00111344,0.02427820,0.02872393,0.01612818,-0.73248643,-0.51809335,12.48848915,0.52359879,0.00000000,0.00000000,1.00000000,0.00829700,0.00000000,1.00000000,77.83277130,30.00000000,-1459620352.00000000,0.00000000,-0.00000000,99.00000000,0.87418485,0.89293838,2.25600839,0.85621977,0.85766137,0.85167193,0.88942248,0.87075210,0.78784603,0.00051724,-0.00351763,0.40006730,0.37313196,-0.66418779,10.79982185,0.99937999,0.03070188,0.01722652,0.00052921,0.00055576,-0.00069230,0.00121127,-0.07985391,-0.08982679,0.00102171,22217612.00000000,-0.00000000,3146443013270536192.00000000,-4283.58056641,-3212832624867278848.00000000,2268976521773318144.00000000,-15326346240.00000000,0.00000000,75.03144836,-40536884887158784.00000000,17729961695711069818766217105637376.00000000,0.00000000
0.09332436,0.25604373,9.81341457,-0.00744958,0.00106423,-0.04044056,0.22262573,0.09524536,-0.48751831,0.00000000,-0.00000000,0.31000000,-0.00200000,0.00300000,-0.01500000,0.99261266,0.01324164,0.00231174,-0.12057934,-0.00112710,0.00633492,-0.00024901,-0.20529486,0.36576179,-0.06254934,-0.00800996,0.00028171,-0.03861410,0.10876080,0.08345604,-0.00111344,0.02427820,0.02872393,0.01612818,-0.81274521,-0.57156795,12.48883152,0.52359879,0.00000000,0.00000000,1.00000000,0.00958800,0.00000000,1.00000000,77.83377075,30.00000000,-1459620352.00000000,0.00000000,-0.00000000,99.00000000,0.84815174,0.87076288,2.51736307,0.82633030,0.82805085,0.82082593,0.86638141,0.84392840,0.74372935,0.00067626,-0.00380095,0.40009961,0.37138924,-0.66601264,10.82077789,0.99938124,0.03072659,0.01711290,0.00052615,0.00064124,-0.00079970,0.00145018,-0.07983428,-0.08980305,0.00117776,22217612.00000000,-0.00000000,3146443013270536192.00000000,-4283.58056641,-3212832624867278848.00000000,2268976521773318144.00000000,-15326346240.00000000,0.00000000,75.03144836,-40536884887158784.00000000,17729961695711069818766217105637376.00000000,0.00000000
0.10289608,0.26082960,9.80862904,-0.00851380,0.00000000,-0.03724788,0.22262573,0.09524536,-0.48751831,0.00000000,-0.00000000,0.31000000,-0.00200000,0.00300000,-0.01500000,0.99264354,0.01355894,0.00255389,-0.12028520,-0.00127222,0.00659449,-0.00029688,-0.20467167,0.36611262,-0.06750956,-0.00800996,0.00028171,-0.03861410,0.10876080,0.08345604,-0.00111344,0.02427820,0.02872393,0.01612818,-0.89055711,-0.62301868,12.48902321,0.52359879,0.00000000,0.00000000,1.00000000,0.01029700,0.00000000,1.00000000,77.83433533,30.00000000,-1459620352.00000000,0.00000000,-0.00000000,99.00000000,0.82079303,0.84754610,2.79120255,0.79501575,0.79701912,0.78851175,0.84223241,0.81583220,0.69750625,0.00076333,-0.00395669,0.40011874,0.37047136,-0.66698366,10.83186531,0.99938184,0.03073989,0.01705315,0.00052454,0.00068838,-0.00085890,0.00158280,-0.07982371,-0.08979023,0.00126325,22217612.00000000,-0.00000000,3146443013270536192.00000000,-4283.58056641,-3212832624867278848.00000000,2268976521773318144.00000000,-15326346240.00000000,0.00000000,75.03144836,-40536884887158784.00000000,17729961695711069818766217105637376.00000000,0.00000000
0.13400421,0.24886495,9.80623627,-0.00851380,0.00212845,-0.04150478,0.22262573,0.09524536,-0.48751831,0.00000000,-0.00000000,0.31000000,-0.00200000,0.00300000,-0.01500000,0.99268484,0.01398824,0.00288152,-0.11988720,-0.00147604,0.00696107,-0.00037110,-0.20382448,0.36658067,-0.07422014,-0.00800996,0.00028171,-0.03861410,0.10876080,0.08345604,-0.00111344,0.02427820,0.02872393,0.01612818,-0.96595657,-0.67254508,12.48929405,0.52359879,0.00000000,0.00000000,1.00000000,0.01129700,0.00000000,1.00000000,77.83512115,30.00000000,-1459620352.00000000,0.00000000,-0.00000000,99.00000000,0.79217172,0.82330155,3.07722855,0.76230294,0.76459569,0.75476795,0.81700063,0.78648770,0.64922130,0.00088562,-0.00417664,0.40014845,0.36923310,-0.66830575,10.84688377,0.99938262,0.03075817,0.01697264,0.00052237,0.00075496,-0.00094262,0.00177255,-0.07980920,-0.08977256,0.00138343,22217612.00000000,-0.00000000,3146443013270536192.00000000,-4283.58056641,-3212832624867278848.00000000,2268976521773318144.00000000,-15326346240.00000000,0.00000000,75.03144836,-40536884887158784.00000000,17729961695711069818766217105637376.00000000,0.00000000
0.13879006,0.26800841,9.79427147,-0.00851380,0.00212845,-0.04256901,0.22390747,0.09603882,-0.48800659,0.00000000,-0.00000000,0.31000000,-0.00200000,0.00300000,-0.01500000,0.99273562,0.01452265,0.00328940,-0.11939171,-0.00174004,0.00743910,-0.00047861,-0.20276330,0.36715254,-0.08257310,-0.00800996,0.00028171,-0.03861410,0.10876080,0.08345604,-0.00111344,0.02427820,0.02872393,0.01612818,-1.03898072,-0.72024077,12.48964977,0.52359879,0.00000000,0.00000000,1.00000000,0.01259900,0.00000000,1.00000000,77.83615875,30.00000000,-1459620352.00000000,0.00000000,-0.00000000,99.00000000,0.76260298,0.79823929,3.37288785,0.72848040,0.73107409,0.71988261,0.79091299,0.75615346,0.59930247,0.00104402,-0.00446346,0.40019146,0.36769500,-0.66996074,10.86560631,0.99938363,0.03078119,0.01687284,0.00051969,0.00084181,-0.00105197,0.00202397,-0.07979093,-0.08975024,0.00153927,22217612.00000000,-0.00000000,3146443013270536192.00000000,-4283.58056641,-3212832624867278848.00000000,2268976521773318144.00000000,-15326346240.00000000,0.00000000,75.03144836,-40536884887158784.00000000,17729961695711069818766217105637376.00000000,0.00000000
0.13161127,0.26322255,9.80862904,-0.00744958,-0.00106423,-0.04044056,0.22390747,0.09603882,-0.48800659,0.00000000,-0.00000000,0.31000000,-0.00200000,0.00300000,-0.01500000,0.99276125,0.01479574,0.00349785,-0.11913849,-0.00188119,0.00769558,-0.00053922,-0.20221765,0.36743936,-0.08684139,-0.00800996,0.00028171,-0.03861410,0.10876080,0.08345604,-0.00111344,0.02427820,0.02872393,0.01612818,-1.10965550,-0.76624250,12.48984146,0.52359879,0.00000000,0.00000000,1.00000000,0.01329700,0.00000000,1.00000000,77.83671570,30.00000000,-1459620352.00000000,0.00000000,-0.00000000,99.00000000,0.73252785,0.77276039,3.67391300,0.69403791,0.69694036,0.68434989,0.76435196,0.72526425,0.54847020,0.00112871,-0.00461735,0.40021569,0.36691201,-0.67081285,10.87518597,0.99938411,0.03079318,0.01682209,0.00051833,0.00088856,-0.00111079,0.00215996,-0.07978132,-0.08973846,0.00162263,22217612.00000000,-0.00000000,3146443013270536192.00000000,-4283.58056641,-3212832624867278848.00000000,2268976521773318144.00000000,-15326346240.00000000,0.00000000,75.03144836,-40536884887158784.00000000,17729961695711069818766217105637376.00000000,0.00000000
0.11246781,0.25604373,9.78948498,-0.00851380,0.00212845,-0.04256901,0.22390747,0.09603882,-0.48800659,0.00000000,-0.00000000,0.31000000,-0.00200000,0.00300000,-0.01500000,0.99279594,0.01516733,0.00378151,-0.11879395,-0.00208245,0.00806303,-0.00063178,-0.20146944,0.36782038,-0.09264877,-0.00800996,0.00028171,-0.03861410,0.10876080,0.08345604,-0.00111344,0.02427820,0.02872393,0.01612818,-1.17802465,-0.81062889,12.49011612,0.52359879,0.00000000,0.00000000,1.00000000,0.01429600,0.00000000,1.00000000,77.83751678,30.00000000,-1459620352.00000000,0.00000000,-0.00000000,99.00000000,0.70232469,0.74721211,3.97633815,0.65943050,0.66264331,0.64863682,0.73767024,0.69422507,0.49739432,0.00124947,-0.00483782,0.40025273,0.36584955,-0.67197984,10.88824081,0.99938476,0.03080976,0.01675328,0.00051648,0.00095553,-0.00119516,0.00235692,-0.07976789,-0.08972196,0.00174161,22217612.00000000,-0.00000000,3146443013270536192.00000000,-4283.58056641,-3212832624867278848.00000000,2268976521773318144.00000000,-15326346240.00000000,0.00000000,75.03144836,-40536884887158784.00000000,17729961695711069818766217105637376.00000000,0.00000000
0.10528901,0.24886495,9.79427147,-0.00851380,0.00319268,-0.04256901,0.22372437,0.09487915,-0.48794556,0.00000000,-0.00000000,0.31000000,-0.00200000,0.00300000,-0.01500000,0.99283791,0.01562339,0.00412968,-0.11837106,-0.00234176,0.00853921,-0.00076079,-0.20054236,0.36827397,-0.09977601,-0.00800996,0.00028171,-0.03861410,0.10876080,0.08345604,-0.00111344,0.02427820,0.02872393,0.01612818,-1.24413323,-0.85347563,12.49047184,0.52359879,0.00000000,0.00000000,1.00000000,0.01558900,0.00000000,1.00000000,77.83855438,30.00000000,-1459620352.00000000,0.00000000,-0.00000000,99.00000000,0.67219537,0.72174716,4.27797365,0.62490410,0.62843364,0.61299556,0.71105754,0.66325766,0.44643945,0.00140505,-0.00512352,0.40030432,0.36454767,-0.67342019,10.90429306,0.99938554,0.03083033,0.01666911,0.00051423,0.00104235,-0.00130467,0.00261556,-0.07975105,-0.08970116,0.00189506,22217612.00000000,-0.00000000,3146443013270536192.00000000,-4283.58056641,-3212832624867278848.00000000,2268976521773318144.00000000,-15326346240.00000000,0.00000000,75.03144836,-40536884887158784.00000000,17729961695711069818766217105637376.00000000,0.00000000
0.12921834,0.25843668,9.80144978,-0.00744958,0.00212845,-0.03937633,0.22372437,0.09487915,-0.48794556,0.00000000,-0.00000000,0.31000000,-0.00200000,0.00300000,-0.01500000,0.99285954,0.01585954,0.00431000,-0.11815211,-0.00248340,0.00880011,-0.00083404,-0.20005776,0.36850163,-0.10346643,-0.00800996,0.00028171,-0.03861410,0.10876080,0.08345604,-0.00111344,0.02427820,0.02872393,0.01612818,-1.30801499,-0.89490169,12.49066544,0.52359879,0.00000000,0.00000000,1.00000000,0.01629700,0.00000000,1.00000000,77.83911896,30.00000000,-1459620352.00000000,0.00000000,-0.00000000,99.00000000,0.64221305,0.69639355,4.57829571,0.59051889,0.59437132,0.57749242,0.68455780,0.63241673,0.39569265,0.00149004,-0.00528006,0.40033361,0.36387607,-0.67417186,10.91261864,0.99938589,0.03084119,0.01662572,0.00051307,0.00109004,-0.00136481,0.00275824,-0.07974198,-0.08968994,0.00197893,22217612.00000000,-0.00000000,3146443013270536192.00000000,-4283.58056641,-3212832624867278848.00000000,2268976521773318144.00000000,-15326346240.00000000,0.00000000,75.03144836,-40536884887158784.00000000,17729961695711069818766217105637376.00000000,0.00000000
0.12443247,0.23211442,9.80144978,-0.00851380,0.00000000,-0.03937633,0.22372437,0.09487915,-0.48794556,0.00000000,-0.00000000,0.31000000,-0.00200000,0.00300000,-0.01500000,0.99288803,0.01617403,0.00455015,-0.11786056,-0.00268280,0.00916890,-0.00094242,-0.19940500,0.36879298,-0.10838068,-0.00800996,0.00028171,-0.03861410,0.10876080,0.08345604,-0.00111344,0.02427820,0.02872393,0.01612818,-1.36972082,-0.93496722,12.49093914,0.52359879,0.00000000,0.00000000,1.00000000,0.01729700,0.00000000,1.00000000,77.83992004,30.00000000,-1459620352.00000000,0.00000000,-0.00000000,99.00000000,0.61241913,0.67114180,4.87711334,0.55630165,0.56047344,0.54216433,0.65818900,0.60172617,0.34519055,0.00160968,-0.00550134,0.40037701,0.36298388,-0.67517960,10.92372894,0.99938643,0.03085586,0.01656809,0.00051154,0.00115747,-0.00144991,0.00296174,-0.07972947,-0.08967439,0.00209710,22217612.00000000,-0.00000000,3146443013270536192.00000000,-4283.58056641,-3212832624867278848.00000000,2268976521773318144.00000000,-15326346240.00000000,0.00000000,75.03144836,-40536884887158784.00000000,17729961695711069818766217105637376.00000000,0.00000000
0.10289608,0.23929322,9.80384254,-0.00744958,0.00106423,-0.03831211,0.22305298,0.09469604,-0.48837280,0.00000000,-0.00000000,0.31000000,-0.00200000,0.00300000,-0.01500000,0.99292237,0.01655591,0.00484181,-0.11750655,-0.00293939,0.00964581,-0.00109016,-0.19860142,0.36912912,-0.11434796,-0.00800996,0.00028171,-0.03861410,0.10876080,0.08345604,-0.00111344,0.02427820,0.02872393,0.01612818,-1.42930317,-0.97372556,12.49129105,0.52359879,0.00000000,0.00000000,1.00000000,0.01858900,0.00000000,1.00000000,77.84094238,30.00000000,-1459620352.00000000,0.00000000,-0.00000000,99.00000000,0.58285272,0.64602977,5.17337608,0.52237415,0.52685738,0.50714207,0.63204396,0.57129443,0.29511321,0.00176364,-0.00578749,0.40043607,0.36190179,-0.67641002,10.93725300,0.99938703,0.03087385,0.01649829,0.00050968,0.00124470,-0.00156012,0.00322778,-0.07971375,-0.08965478,0.00224932,22217612.00000000,-0.00000000,3146443013270536192.00000000,-4283.58056641,-3212832624867278848.00000000,2268976521773318144.00000000,-15326346240.00000000,0.00000000,75.03144836,-40536884887158784.00000000,17729961695711069818766217105637376.00000000,0.00000000
0.10768194,0.24407908,9.81820011,-0.00851380,0.00212845,-0.04469746,0.22305298,0.09469604,-0.48837280,0.00000000,-0.00000000,0.31000000,-0.00200000,0.00300000,-0.01500000,0.99293977,0.01675172,0.00499138,-0.11732505,-0.00307951,0.00990690,-0.00117317,-0.19818380,0.36929232,-0.11740749,-0.00800996,0.00028171,-0.03861410,0.10876080,0.08345604,-0.00111344,0.02427820,0.02872393,0.01612818,-1.48680127,-1.01127446,12.49148273,0.52359879,0.00000000,0.00000000,1.00000000,0.01929600,0.00000000,1.00000000,77.84149933,30.00000000,-1459620352.00000000,0.00000000,-0.00000000,99.00000000,0.55363661,0.62122107,5.46515417,0.48896044,0.49375075,0.47265044,0.60629445,0.54131913,0.24579182,0.00184771,-0.00594414,0.40046927,0.36134925,-0.67704618,10.94420338,0.99938732,0.03088325,0.01646264,0.00050873,0.00129257,-0.00162058,0.00337424,-0.07970527,-0.08964419,0.00233249,22217612.00000000,-0.00000000,3146443013270536192.00000000,-4283.58056641,-3212832624867278848.00000000,2268976521773318144.00000000,-15326346240.00000000,0.00000000,75.03144836,-40536884887158784.00000000,17729961695711069818766217105637376.00000000,0.00000000
0.12682541,0.24647202,9.80862904,-0.00851380,0.00106423,-0.04044056,0.22305298,0.09469604,-0.48837280,0.00000000,-0.00000000,0.31000000,-0.00200000,0.00300000,-0.01500000,0.99296266,0.01701073,0.00518927,-0.11708501,-0.00327733,0.01027677,-0.00129474,-0.19762258,0.36949360,-0.12145431,-0.00800996,0.00028171,-0.03861410,0.10876080,0.08345604,-0.00111344,0.02427820,0.02872393,0.01612818,-1.54226911,-1.04766071,12.49174976,0.52359879,0.00000000,0.00000000,1.00000000,0.02029700,0.00000000,1.00000000,77.84227753,30.00000000,-1459620352.00000000,0.00000000,-0.00000000,99.00000000,0.52501523,0.59691608,5.75046778,0.45628956,0.46138525,0.43891922,0.58111793,0.51200485,0.19756660,0.00196640,-0.00616606,0.40051791,0.36062056,-0.67789370,10.95342255,0.99938768,0.03089587,0.01641562,0.00050749,0.00136039,-0.00170631,0.00358323,-0.07969350,-0.08962943,0.00245000,22217612.00000000,-0.00000000,3146443013270536192.00000000,-4283.58056641,-3212832624867278848.00000000,2268976521773318144.00000000,-15326346240.00000000,0.00000000,75.03144836,-40536884887158784.00000000,17729961695711069818766217105637376.00000000,0.00000000
0.13639714,0.24886495,9.81820011,-0.00744958,-0.00106423,-0.03724788,0.22348022,0.09591675,-0.48782349,0.00000000,-0.00000000,0.31000000,-0.00200000,0.00300000,-0.01500000,0.99299002,0.01732239,0.00542743,-0.11679623,-0.00353197,0.01075481,-0.00145808,-0.19693455,0.36971474,-0.12632351,-0.00800996,0.00028171,-0.03861410,0.10876080,0.08345604,-0.00111344,0.02427820,0.02872393,0.01612818,-1.59576166,-1.08292544,12.49209499,0.52359879,0.00000000,0.00000000,1.00000000,0.02159000,0.00000000,1.00000000,77.84328461,30.00000000,-1459620352.00000000,0.00000000,-0.00000000,99.00000000,0.49721083,0.57323480,6.02808237,0.42450386,0.42989531,0.40610382,0.55662423,0.48348120,0.15064767,0.00211918,-0.00645288,0.40058324,0.35974482,-0.67891902,10.96455097,0.99938816,0.03091118,0.01635914,0.00050599,0.00144809,-0.00181727,0.00385575,-0.07967868,-0.08961076,0.00260143,22217612.00000000,-0.00000000,3146443013270536192.00000000,-4283.58056641,-3212832624867278848.00000000,2268976521773318144.00000000,-15326346240.00000000,0.00000000,75.03144836,-40536884887158784.00000000,17729961695711069818766217105637376.00000000,0.00000000
0.13400421,0.26800841,9.81102180,-0.00851380,0.00106423,-0.04044056,0.22348022,0.09591675,-0.48782349,0.00000000,-0.00000000,0.31000000,-0.00200000,0.00300000,-0.01500000,0.99300385,0.01748043,0.00554822,-0.11664984,-0.00367075,0.01101590,-0.00154901,-0.19657899,0.36981589,-0.12879227,-0.00800996,0.00028171,-0.03861410,0.10876080,0.08345604,-0.00111344,0.02427820,0.02872393,0.01612818,-1.64732158,-1.11714697,12.49228001,0.52359879,0.00000000,0.00000000,1.00000000,0.02229600,0.00000000,1.00000000,77.84382629,30.00000000,-1459620352.00000000,0.00000000,-0.00000000,99.00000000,0.47030020,0.55024314,6.29764366,0.39364573,0.39931634,0.37425345,0.53284514,0.45579004,0.10509612,0.00220245,-0.00660954,0.40061960,0.35930267,-0.67944372,10.97021198,0.99938840,0.03091910,0.01633061,0.00050524,0.00149608,-0.00187798,0.00400526,-0.07967068,-0.08960067,0.00268400,22217612.00000000,-0.00000000,3146443013270536192.00000000,-4283.58056641,-3212832624867278848.00000000,2268976521773318144.00000000,-15326346240.00000000,0.00000000,75.03144836,-40536884887158784.00000000,17729961695711069818766217105637376.00000000,0.00000000
0.12682541,0.26561546,9.82059383,-0.00744958,0.00212845,-0.03937633,0.22348022,0.09591675,-0.48782349,0.00000000,-0.00000000,0.31000000,-0.00200000,0.00300000,-0.01500000,0.99302173,0.01768738,0.00570643,-0.11645817,-0.00386666,0.01138546,-0.00168090,-0.19610286,0.36993128,-0.13202497,-0.00800996,0.00028171,-0.03861410,0.10876080,0.08345604,-0.00111344,0.02427820,0.02872393,0.01612818,-1.69700575,-1.15035796,12.49254036,0.52359879,0.00000000,0.00000000,1.00000000,0.02329500,0.00000000,1.00000000,77.84458160,30.00000000,-1459620352.00000000,0.00000000,-0.00000000,99.00000000,0.44426191,0.52799249,6.55913353,0.36371717,0.36965525,0.34336424,0.50978225,0.42893660,0.06091572,0.00232000,-0.00683128,0.40067235,0.35872513,-0.68013656,10.97765255,0.99938864,0.03092964,0.01629331,0.00050425,0.00156403,-0.00196399,0.00421812,-0.07965956,-0.08958660,0.00280066,22217612.00000000,-0.00000000,3146443013270536192.00000000,-4283.58056641,-3212832624867278848.00000000,2268976521773318144.00000000,-15326346240.00000000,0.00000000,75.03144836,-40536884887158784.00000000,17729961695711069818766217105637376.00000000,0.00000000
0.11007488,0.25125787,9.81341457,-0.00851380,0.00106423,-0.03618366,0.22323608,0.09597778,-0.48831177,0.00000000,-0.00000000,0.31000000,-0.00200000,0.00300000,-0.01500000,0.99304301,0.01793400,0.00589501,-0.11622985,-0.00411908,0.01186319,-0.00185632,-0.19552059,0.37004459,-0.13587657,-0.00800996,0.00028171,-0.03861410,0.10876080,0.08345604,-0.00111344,0.02427820,0.02872393,0.01612818,-1.74487114,-1.18259025,12.49287033,0.52359879,0.00000000,0.00000000,1.00000000,0.02458600,0.00000000,1.00000000,77.84554291,30.00000000,-1459620352.00000000,0.00000000,-0.00000000,99.00000000,0.41907549,0.50650692,6.81225920,0.33475149,0.34094891,0.31347427,0.48746118,0.40295100,0.01815564,0.00247145,-0.00711791,0.40074253,0.35803759,-0.68096775,10.98655796,0.99938899,0.03094232,0.01624890,0.00050309,0.00165191,-0.00207531,0.00449523,-0.07964547,-0.08956872,0.00295113,22217612.00000000,-0.00000000,3146443013270536192.00000000,-4283.58056641,-3212832624867278848.00000000,2268976521773318144.00000000,-15326346240.00000000,0.00000000,75.03144836,-40536884887158784.00000000,17729961695711069818766217105637376.00000000,0.00000000
0.10289608,0.25604373,9.81580734,-0.00851380,0.00106423,-0.04363323,0.22323608,0.09597778,-0.48831177,0.00000000,-0.00000000,0.31000000,-0.00200000,0.00300000,-0.01500000,0.99305356,0.01805840,0.00599017,-0.11611470,-0.00425749,0.01212558,-0.00195403,-0.19521891,0.37008885,-0.13781919,-0.00800996,0.00028171,-0.03861410,0.10876080,0.08345604,-0.00111344,0.02427820,0.02872393,0.01612818,-1.79096150,-1.21391141,12.49304962,0.52359879,0.00000000,0.00000000,1.00000000,0.02529500,0.00000000,1.00000000,77.84606934,30.00000000,-1459620352.00000000,0.00000000,-0.00000000,99.00000000,0.39476410,0.48582202,7.05629730,0.30682930,0.31327707,0.28466982,0.46594515,0.37790588,-0.02306363,0.00255449,-0.00727535,0.40078163,0.35769236,-0.68139207,10.99106979,0.99938917,0.03094889,0.01622658,0.00050250,0.00170025,-0.00213655,0.00464798,-0.07963781,-0.08955898,0.00303368,22217612.00000000,-0.00000000,3146443013270536192.00000000,-4283.58056641,-3212832624867278848.00000000,2268976521773318144.00000000,-15326346240.00000000,0.00000000,75.03144836,-40536884887158784.00000000,17729961695711069818766217105637376.00000000,0.00000000
0.11725368,0.24886495,9.79666424,-0.00744958,0.00000000,-0.03405520,0.22323608,0.09597778,-0.48831177,0.00000000,-0.00000000,0.31000000,-0.00200000,0.00300000,-0.01500000,0.99306726,0.01821911,0.00611313,-0.11596602,-0.00445250,0.01249608,-0.00209450,-0.19481704,0.37012628,-0.14032805,-0.00800996,0.00028171,-0.03861410,0.10876080,0.08345604,-0.00111344,0.02427820,0.02872393,0.01612818,-1.83533347,-1.24434555,12.49329853,0.52359879,0.00000000,0.00000000,1.00000000,0.02629600,0.00000000,1.00000000,77.84679413,30.00000000,-1459620352.00000000,0.00000000,-0.00000000,99.00000000,0.37140265,0.46600133,7.29040766,0.28004396,0.28673071,0.25704521,0.44530609,0.35388348,-0.06260486,0.00267150,-0.00749765,0.40083781,0.35724789,-0.68194610,10.99693012,0.99938935,0.03095753,0.01619777,0.00050175,0.00176854,-0.00222309,0.00486466,-0.07962715,-0.08954539,0.00315009,22217612.00000000,-0.00000000,3146443013270536192.00000000,-4283.58056641,-3212832624867278848.00000000,2268976521773318144.00000000,-15326346240.00000000,0.00000000,75.03144836,-40536884887158784.00000000,17729961695711069818766217105637376.00000000,0.00000000
0.10528901,0.23450735,9.80623627,-0.00744958,0.00000000,-0.03724788,0.22195435,0.09518433,-0.48776245,0.00000000,-0.00000000,0.31000000,-0.00200000,0.00300000,-0.01500000,0.99308330,0.01840796,0.00625767,-0.11579137,-0.00470338,0.01297393,-0.00227947,-0.19432788,0.37014273,-0.14327572,-0.00800996,0.00028171,-0.03861410,0.10876080,0.08345604,-0.00111344,0.02427820,0.02872393,0.01612818,-1.87804484,-1.27391553,12.49361515,0.52359879,0.00000000,0.00000000,1.00000000,0.02758700,0.00000000,1.00000000,77.84771729,30.00000000,-1459620352.00000000,0.00000000,-0.00000000,99.00000000,0.34904718,0.44705197,7.51406765,0.25445446,0.26136464,0.23066851,0.42558578,0.33093280,-0.10038427,0.00282203,-0.00778436,0.40091181,0.35672647,-0.68260360,11.00385857,0.99938959,0.03096786,0.01616395,0.00050087,0.00185666,-0.00233483,0.00514568,-0.07961362,-0.08952810,0.00329999,22217612.00000000,-0.00000000,3146443013270536192.00000000,-4283.58056641,-3212832624867278848.00000000,2268976521773318144.00000000,-15326346240.00000000,0.00000000,75.03144836,-40536884887158784.00000000,17729961695711069818766217105637376.00000000,0.00000000
0.11007488,0.24647202,9.80144978,-0.01064225,-0.00106423,-0.04044056,0.22195435,0.09518433,-0.48776245,0.00000000,-0.00000000,0.31000000,-0.00200000,0.00300000,-0.01500000,0.99309123,0.01850190,0.00632961,-0.11570452,-0.00484078,0.01323599,-0.00238195,-0.19407542,0.37013593,-0.14474168,-0.00800996,0.00028171,-0.03861410,0.10876080,0.08345604,-0.00111344,0.02427820,0.02872393,0.01612818,-1.91913927,-1.30267501,12.49378490,0.52359879,0.00000000,0.00000000,1.00000000,0.02829500,0.00000000,1.00000000,77.84821320,30.00000000,-1459620352.00000000,0.00000000,-0.00000000,99.00000000,0.32767746,0.42893812,7.72722912,0.23006266,0.23718172,0.20554024,0.40678477,0.30905700,-0.13639367,0.00290447,-0.00794159,0.40095279,0.35646886,-0.68293571,11.00732803,0.99938971,0.03097316,0.01614719,0.00050043,0.00190505,-0.00239619,0.00530022,-0.07960626,-0.08951868,0.00338214,22217612.00000000,-0.00000000,3146443013270536192.00000000,-4283.58056641,-3212832624867278848.00000000,2268976521773318144.00000000,-15326346240.00000000,0.00000000,75.03144836,-40536884887158784.00000000,17729961695711069818766217105637376.00000000,0.00000000
0.11725368,0.25125787,9.80144978,-0.00744958,-0.00212845,-0.03724788,0.22195435,0.09518433,-0.48776245,0.00000000,-0.00000000,0.31000000,-0.00200000,0.00300000,-0.01500000,0.99310130,0.01862178,0.00642143,-0.11559375,-0.00503471,0.01360646,-0.00252870,-0.19373944,0.37010446,-0.14661175,-0.00800996,0.00028171,-0.03861410,0.10876080,0.08345604,-0.00111344,0.02427820,0.02872393,0.01612818,-1.95867038,-1.33063829,12.49402237,0.52359879,0.00000000,0.00000000,1.00000000,0.02929600,0.00000000,1.00000000,77.84890747,30.00000000,-1459620352.00000000,0.00000000,-0.00000000,99.00000000,0.30727577,0.41165504,7.93007803,0.20684321,0.21415552,0.18162788,0.38888484,0.28823617,-0.17066538,0.00302083,-0.00816388,0.40101147,0.35614195,-0.68336600,11.01179123,0.99938983,0.03098010,0.01612584,0.00049989,0.00197349,-0.00248300,0.00551949,-0.07959596,-0.08950548,0.00349817,22217612.00000000,-0.00000000,3146443013270536192.00000000,-4283.58056641,-3212832624867278848.00000000,2268976521773318144.00000000,-15326346240.00000000,0.00000000,75.03144836,-40536884887158784.00000000,17729961695711069818766217105637376.00000000,0.00000000
0.12682541,0.24886495,9.82059383,-0.00744958,-0.00106423,-0.03618366,0.22311401,0.09573364,-0.48831177,0.00000000,-0.00000000,0.31000000,-0.00200000,0.00300000,-0.01500000,0.99311292,0.01876051,0.00652774,-0.11546561,-0.00528430,0.01408418,-0.00272077,-0.19333145,0.37003633,-0.14877547,-0.00800996,0.00028171,-0.03861410,0.10876080,0.08345604,-0.00111344,0.02427820,0.02872393,0.01612818,-1.99669397,-1.35781777,12.49432182,0.52359879,0.00000000,0.00000000,1.00000000,0.03058700,0.00000000,1.00000000,77.84977722,30.00000000,-1459620352.00000000,0.00000000,-0.00000000,99.00000000,0.28787643,0.39520988,8.12275028,0.18478669,0.19226889,0.15892386,0.37187648,0.26845807,-0.20322123,0.00317058,-0.00845051,0.40108833,0.35576543,-0.68387139,11.01700401,0.99938995,0.03098833,0.01610117,0.00049925,0.00206179,-0.00259507,0.00580344,-0.07958284,-0.08948863,0.00364766,22217612.00000000,-0.00000000,3146443013270536192.00000000,-4283.58056641,-3212832624867278848.00000000,2268976521773318144.00000000,-15326346240.00000000,0.00000000,75.03144836,-40536884887158784.00000000,17729961695711069818766217105637376.00000000,0.00000000
0.12682541,0.24168615,9.83016491,-0.00851380,0.00106423,-0.04044056,0.22311401,0.09573364,-0.48831177,0.00000000,-0.00000000,0.31000000,-0.00200000,0.00300000,-0.01500000,0.99311858,0.01882836,0.00657975,-0.11540298,-0.00542103,0.01434613,-0.00282686,-0.19312125,0.36998534,-0.14983317,-0.00800996,0.00028171,-0.03861410,0.10876080,0.08345604,-0.00111344,0.02427820,0.02872393,0.01612818,-2.03325415,-1.38425601,12.49448490,0.52359879,0.00000000,0.00000000,1.00000000,0.03129500,0.00000000,1.00000000,77.85025024,30.00000000,-1459620352.00000000,0.00000000,-0.00000000,99.00000000,0.26953021,0.37960282,8.30523682,0.16390185,0.17153355,0.13743643,0.35576779,0.24972954,-0.23405084,0.00325262,-0.00860768,0.40113074,0.35558325,-0.68412399,11.01958084,0.99939001,0.03099252,0.01608916,0.00049895,0.00211026,-0.00265658,0.00595947,-0.07957569,-0.08947943,0.00372959,22217612.00000000,-0.00000000,3146443013270536192.00000000,-4283.58056641,-3212832624867278848.00000000,2268976521773318144.00000000,-15326346240.00000000,0.00000000,75.03144836,-40536884887158784.00000000,17729961695711069818766217105637376.00000000,0.00000000
0.13161127,0.24407908,9.82298660,-0.00744958,0.00000000,-0.03511943,0.22311401,0.09573364,-0.48831177,0.00000000,-0.00000000,0.31000000,-0.00200000,0.00300000,-0.01500000,0.99312556,0.01891329,0.00664489,-0.11532460,-0.00561407,0.01471639,-0.00297816,-0.19284184,0.36989462,-0.15115663,-0.00800996,0.00028171,-0.03861410,0.10876080,0.08345604,-0.00111344,0.02427820,0.02872393,0.01612818,-2.06840515,-1.40996647,12.49470997,0.52359879,0.00000000,0.00000000,1.00000000,0.03229600,0.00000000,1.00000000,77.85090637,30.00000000,-1459620352.00000000,0.00000000,-0.00000000,99.00000000,0.25227502,0.36484638,8.47743416,0.14420219,0.15197071,0.11717768,0.34057230,0.23206466,-0.26313069,0.00336844,-0.00882983,0.40119129,0.35535732,-0.68444759,11.02284622,0.99939007,0.03099798,0.01607417,0.00049857,0.00217881,-0.00274359,0.00618063,-0.07956565,-0.08946651,0.00384536,22217612.00000000,-0.00000000,3146443013270536192.00000000,-4283.58056641,-3212832624867278848.00000000,2268976521773318144.00000000,-15326346240.00000000,0.00000000,75.03144836,-40536884887158784.00000000,17729961695711069818766217105637376.00000000,0.00000000
0.16750525,0.25604373,9.77752113,-0.00532113,0.00000000,-0.03618366,0.22378540,0.09579468,-0.48843384,0.00000000,-0.00000000,0.31000000,-0.00200000,0.00300000,-0.01500000,0.99313354,0.01900951,0.00671872,-0.11523587,-0.00586259,0.01519375,-0.00317524,-0.19250262,0.36975449,-0.15265512,-0.00800996,0.00028171,-0.03861410,0.10876080,0.08345604,-0.00111344,0.02427820,0.02872393,0.01612818,-2.10220170,-1.43496251,12.49499512,0.52359879,0.00000000,0.00000000,1.00000000,0.03358700,0.00000000,1.00000000,77.85173798,30.00000000,-1459620352.00000000,0.00000000,-0.00000000,99.00000000,0.23616751,0.35097045,8.63927078,0.12569416,0.13358282,0.09815479,0.32629305,0.21546523,-0.29045844,0.00351755,-0.00911625,0.40127012,0.35510355,-0.68482316,11.02660275,0.99939013,0.03100442,0.01605722,0.00049815,0.00226724,-0.00285589,0.00646668,-0.07955282,-0.08944997,0.00399455,22217612.00000000,-0.00000000,3146443013270536192.00000000,-4283.58056641,-3212832624867278848.00000000,2268976521773318144.00000000,-15326346240.00000000,0.00000000,75.03144836,-40536884887158784.00000000,17729961695711069818766217105637376.00000000,0.00000000
0.15554059,0.24647202,9.73205471,-0.00851380,-0.00319268,-0.03405520,0.22378540,0.09579468,-0.48843384,0.00000000,-0.00000000,0.31000000,-0.00200000,0.00300000,-0.01500000,0.99313736,0.01905551,0.00675403,-0.11519349,-0.00599895,0.01545584,-0.00328398,-0.19232740,0.36966616,-0.15337089,-0.00800996,0.00028171,-0.03861410,0.10876080,0.08345604,-0.00111344,0.02427820,0.02872393,0.01612818,-2.13468885,-1.45928025,12.49515057,0.52359879,0.00000000,0.00000000,1.00000000,0.03429600,0.00000000,1.00000000,77.85219574,30.00000000,-1459620352.00000000,0.00000000,-0.00000000,99.00000000,0.22124945,0.33797523,8.79079247,0.10835792,0.11634465,0.08034815,0.31291544,0.19991207,-0.31606853,0.00359937,-0.00927350,0.40131360,0.35498399,-0.68500894,11.02842999,0.99939018,0.03100769,0.01604915,0.00049795,0.00231583,-0.00291759,0.00662399,-0.07954580,-0.08944092,0.00407646,22217612.00000000,-0.00000000,3146443013270536192.00000000,-4283.58056641,-3212832624867278848.00000000,2268976521773318144.00000000,-15326346240.00000000,0.00000000,75.03144836,-40536884887158784.00000000,17729961695711069818766217105637376.00000000,0.00000000
0.13639714,0.17707698,9.65787411,-0.00851380,-0.00212845,-0.03299098,0.22378540,0.09579468,-0.48843384,0.00000000,-0.00000000,0.31000000,-0.00200000,0.00300000,-0.01500000,0.99314195,0.01911134,0.00679691,-0.11514205,-0.00619104,0.01582536,-0.00343822,-0.19209456,0.36952618,-0.15423946,-0.00800996,0.00028171,-0.03861410,0.10876080,0.08345604,-0.00111344,0.02427820,0.02872393,0.01612818,-2.16591811,-1.48292756,12.49536514,0.52359879,0.00000000,0.00000000,1.00000000,0.03529600,0.00000000,1.00000000,77.85282135,30.00000000,-1459620352.00000000,0.00000000,-0.00000000,99.00000000,0.20745334,0.32572445,8.93211937,0.09214969,0.10021463,0.06372093,0.30041078,0.18537135,-0.34001827,0.00371463,-0.00949522,0.40137529,0.35484087,-0.68524319,11.03069878,0.99939024,0.03101190,0.01603938,0.00049772,0.00238438,-0.00300466,0.00684623,-0.07953595,-0.08942820,0.00419193,22217612.00000000,-0.00000000,3146443013270536192.00000000,-4283.58056641,-3212832624867278848.00000000,2268976521773318144.00000000,-15326346240.00000000,0.00000000,75.03144836,-40536884887158784.00000000,17729961695711069818766217105637376.00000000,0.00000000
0.17946991,0.16989818,9.65787411,-0.00957803,-0.00425690,-0.03724788,0.22390747,0.09567261,-0.48947144,0.00000000,-0.00000000,0.31000000,-0.00200000,0.00300000,-0.01500000,0.99314702,0.01917264,0.00684400,-0.11508562,-0.00643906,0.01630290,-0.00363889,-0.19181052,0.36932600,-0.15519324,-0.00800996,0.00028171,-0.03861410,0.10876080,0.08345604,-0.00111344,0.02427820,0.02872393,0.01612818,-2.19593811,-1.50591147,12.49564171,0.52359879,0.00000000,0.00000000,1.00000000,0.03658900,0.00000000,1.00000000,77.85362244,30.00000000,-1459620352.00000000,0.00000000,-0.00000000,99.00000000,0.19473787,0.31401843,9.06338120,0.07702751,0.08515283,0.04823320,0.28874943,0.17180870,-0.36236444,0.00386343,-0.00978174,0.40145555,0.35468614,-0.68551117,11.03326225,0.99939024,0.03101682,0.01602865,0.00049746,0.00247302,-0.00311728,0.00713413,-0.07952329,-0.08941183,0.00434116,22217612.00000000,-0.00000000,3146443013270536192.00000000,-4283.58056641,-3212832624867278848.00000000,2268976521773318144.00000000,-15326346240.00000000,0.00000000,75.03144836,-40536884887158784.00000000,17729961695711069818766217105637376.00000000,0.00000000
0.20339923,0.08853849,9.80144978,-0.01489915,-0.00532113,-0.03405520,0.22390747,0.09567261,-0.48947144,0.00000000,-0.00000000,0.31000000,-0.00200000,0.00300000,-0.01500000,0.99314934,0.01920089,0.00686570,-0.11505961,-0.00657590,0.01656651,-0.00375001,-0.19166251,0.36920562,-0.15563338,-0.00800996,0.00028171,-0.03861410,0.10876080,0.08345604,-0.00111344,0.02427820,0.02872393,0.01612818,-2.22478318,-1.52825594,12.49579430,0.52359879,0.00000000,0.00000000,1.00000000,0.03730300,0.00000000,1.00000000,77.85407257,30.00000000,-1459620352.00000000,0.00000000,-0.00000000,99.00000000,0.18319212,0.30268538,9.18491554,0.06295479,0.07112533,0.03385132,0.27790922,0.15919790,-0.38314980,0.00394554,-0.00993991,0.40149999,0.35461646,-0.68564141,11.03448677,0.99939024,0.03101926,0.01602372,0.00049735,0.00252199,-0.00317949,0.00729325,-0.07951631,-0.08940282,0.00442355,22217612.00000000,-0.00000000,3146443013270536192.00000000,-4283.58056641,-3212832624867278848.00000000,2268976521773318144.00000000,-15326346240.00000000,0.00000000,75.03144836,-40536884887158784.00000000,17729961695711069818766217105637376.00000000,0.00000000
0.21775682,-0.02392932,9.99527740,-0.01702760,-0.00851380,-0.02979830,0.22390747,0.09567261,-0.48947144,0.00000000,-0.00000000,0.31000000,-0.00200000,0.00300000,-0.01500000,0.99315196,0.01923295,0.00689034,-0.11503008,-0.00676603,0.01693296,-0.00390505,-0.19146776,0.36902460,-0.15613410,-0.00800996,0.00028171,-0.03861410,0.10876080,0.08345604,-0.00111344,0.02427820,0.02872393,0.01612818,-2.25248885,-1.54995930,12.49600792,0.52359879,0.00000000,0.00000000,1.00000000,0.03829600,0.00000000,1.00000000,77.85469055,30.00000000,-1459620352.00000000,0.00000000,-0.00000000,99.00000000,0.17288533,0.29141062,9.29744530,0.04989307,0.05810069,0.02056044,0.26787272,0.14751837,-0.40240705,0.00405962,-0.01015977,0.40156204,0.35453936,-0.68579787,11.03594685,0.99939024,0.03102223,0.01601812,0.00049722,0.00259009,-0.00326603,0.00751477,-0.07950664,-0.08939031,0.00453810,22217612.00000000,-0.00000000,3146443013270536192.00000000,-4283.58056641,-3212832624867278848.00000000,2268976521773318144.00000000,-15326346240.00000000,0.00000000,75.03144836,-40536884887158784.00000000,17729961695711069818766217105637376.00000000,0.00000000
0.14836179,-0.06939503,10.19149780,-0.02022028,-0.00851380,-0.02873408,0.22396851,0.09432983,-0.49020386,0.00000000,-0.00000000,0.31000000,-0.00200000,0.00300000,-0.01500000,0.99315470,0.01926598,0.00691573,-0.11499956,-0.00701329,0.01740978,-0.00410760,-0.19122739,0.36877075,-0.15665142,-0.00800996,0.00028171,-0.03861410,0.10876080,0.08345604,-0.00111344,0.02427820,0.02872393,0.01612818,-2.27908373,-1.57101691,12.49628258,0.52359879,0.00000000,0.00000000,1.00000000,0.03958900,0.00000000,1.00000000,77.85549164,30.00000000,-1459620352.00000000,0.00000000,-0.00000000,99.00000000,0.16371870,0.27980953,9.40196991,0.03780258,0.04604631,0.00834361,0.25861934,0.13674466,-0.42017582,0.00420797,-0.01044587,0.40164304,0.35446241,-0.68596864,11.03755188,0.99939018,0.03102543,0.01601231,0.00049709,0.00267878,-0.00337874,0.00780352,-0.07949408,-0.08937406,0.00468722,22217612.00000000,-0.00000000,3146443013270536192.00000000,-4283.58056641,-3212832624867278848.00000000,2268976521773318144.00000000,-15326346240.00000000,0.00000000,75.03144836,-40536884887158784.00000000,17729961695711069818766217105637376.00000000,0.00000000
0.05743037,0.00000000,10.21064186,-0.02341295,-0.00957803,-0.02873408,0.22396851,0.09432983,-0.49020386,0.00000000,-0.00000000,0.31000000,-0.00200000,0.00300000,-0.01500000,0.99315578,0.01927966,0.00692626,-0.11498682,-0.00714859,0.01767076,-0.00421866,-0.19110270,0.36862186,-0.15686594,-0.00800996,0.00028171,-0.03861410,0.10876080,0.08345604,-0.00111344,0.02427820,0.02872393,0.01612818,-2.30458021,-1.59144008,12.49643040,0.52359879,0.00000000,0.00000000,1.00000000,0.04029700,0.00000000,1.00000000,77.85592651,30.00000000,-1459620352.00000000,0.00000000,-0.00000000,99.00000000,0.15539014,0.26777694,9.49946022,0.02663470,0.03492504,-0.00283763,0.25012064,0.12684099,-0.43651286,0.00428915,-0.01060246,0.40168747,0.35443267,-0.68604416,11.03827953,0.99939024,0.03102680,0.01600991,0.00049704,0.00272735,-0.00344047,0.00796170,-0.07948721,-0.08936517,0.00476886,22217612.00000000,-0.00000000,3146443013270536192.00000000,-4283.58056641,-3212832624867278848.00000000,2268976521773318144.00000000,-15326346240.00000000,0.00000000,75.03144836,-40536884887158784.00000000,17729961695711069818766217105637376.00000000,0.00000000
-0.11246781,0.07418089,10.03356457,-0.03299098,-0.00744958,-0.03405520,0.22396851,0.09432983,-0.49020386,0.00000000,-0.00000000,0.31000000,-0.00200000,0.00300000,-0.01500000,0.99315691,0.01929322,0.00693673,-0.11497398,-0.00733933,0.01803879,-0.00437558,-0.19093630,0.36839777,-0.15707815,-0.00800996,0.00028171,-0.03861410,0.10876080,0.08345604,-0.00111344,0.02427820,0.02872393,0.01612818,-2.32899189,-1.61122537,12.49662781,0.52359879,0.00000000,0.00000000,1.00000000,0.04129600,0.00000000,1.00000000,77.85649872,30.00000000,-1459620352.00000000,0.00000000,-0.00000000,99.00000000,0.14740789,0.25552458,9.59041309,0.01632436,0.02469630,-0.01303849,0.24234182,0.11776635,-0.45148510,0.00440360,-0.01082327,0.40175024,0.35440770,-0.68612546,11.03910828,0.99939024,0.03102815,0.01600758,0.00049699,0.00279588,-0.00352757,0.00818501,-0.07947753,-0.08935264,0.00488405,22217612.00000000,-0.00000000,3146443013270536192.00000000,-4283.58056641,-3212832624867278848.00000000,2268976521773318144.00000000,-15326346240.00000000,0.00000000,75.03144836,-40536884887158784.00000000,17729961695711069818766217105637376.00000000,0.00000000
-0.06221624,0.11246781,9.78469944,-0.03618366,-0.00744958,-0.02766985,0.22525024,0.09365845,-0.49227905,0.00000000,-0.00000000,0.31000000,-0.00200000,0.00300000,-0.01500000,0.99315792,0.01930394,0.00694509,-0.11496338,-0.00758633,0.01851547,-0.00457921,-0.19073315,0.36808968,-0.15724461,-0.00800996,0.00028171,-0.03861410,0.10876080,0.08345604,-0.00111344,0.02427820,0.02872393,0.01612818,-2.35232091,-1.63037205,12.49686813,0.52359879,0.00000000,0.00000000,1.00000000,0.04259100,0.00000000,1.00000000,77.85720062,30.00000000,-1459620352.00000000,0.00000000,-0.00000000,99.00000000,0.13935980,0.24332692,9.67467690,0.00680223,0.01532105,-0.02230839,0.23524892,0.10947931,-0.46516120,0.00455180,-0.01110928,0.40183169,0.35439762,-0.68619859,11.03994274,0.99939024,0.03102911,0.01600591,0.00049695,0.00288471,-0.00364049,0.00847461,-0.07946499,-0.08933641,0.00503336,22217612.00000000,-0.00000000,3146443013270536192.00000000,-4283.58056641,-3212832624867278848.00000000,2268976521773318144.00000000,-15326346240.00000000,0.00000000,75.03144836,-40536884887158784.00000000,17729961695711069818766217105637376.00000000,0.00000000
-0.15075472,0.16989818,9.68658924,-0.04256901,-0.00744958,-0.01809183,0.22525024,0.09365845,-0.49227905,0.00000000,-0.00000000,0.31000000,-0.00200000,0.00300000,-0.01500000,0.99315816,0.01930633,0.00694707,-0.11496057,-0.00772092,0.01877521,-0.00469025,-0.19062950,0.36791268,-0.15728115,-0.00800996,0.00028171,-0.03861410,0.10876080,0.08345604,-0.00111344,0.02427820,0.02872393,0.01612818,-2.37454939,-1.64889538,12.49699116,0.52359879,0.00000000,0.00000000,1.00000000,0.04329700,0.00000000,1.00000000,77.85755920,30.00000000,-1459620352.00000000,0.00000000,-0.00000000,99.00000000,0.13104160,0.23146497,9.75181103,-0.00198833,0.00676323,-0.03066719,0.22881289,0.10194146,-0.47760436,0.00463255,-0.01126513,0.40187612,0.35440481,-0.68622208,11.04027843,0.99939024,0.03102922,0.01600575,0.00049695,0.00293314,-0.00370205,0.00863251,-0.07945816,-0.08932757,0.00511475,22217612.00000000,-0.00000000,3146443013270536192.00000000,-4283.58056641,-3212832624867278848.00000000,2268976521773318144.00000000,-15326346240.00000000,0.00000000,75.03144836,-40536884887158784.00000000,17729961695711069818766217105637376.00000000,0.00000000
-0.14596885,0.18664871,9.67462444,-0.05214703,-0.00532113,-0.02660563,0.22525024,0.09365845,-0.49227905,0.00000000,-0.00000000,0.31000000,-0.00200000,0.00300000,-0.01500000,0.99315822,0.01930522,0.00694654,-0.11496034,-0.00791141,0.01914286,-0.00484752,-0.19049320,0.36765036,-0.15726353,-0.00800996,0.00028171,-0.03861410,0.10876080,0.08345604,-0.00111344,0.02427820,0.02872393,0.01612818,-2.39566350,-1.66679823,12.49715328,0.52359879,0.00000000,0.00000000,1.00000000,0.04429700,0.00000000,1.00000000,77.85803223,30.00000000,-1459620352.00000000,0.00000000,-0.00000000,99.00000000,0.12220943,0.22027887,9.82148266,-0.01010374,-0.00100715,-0.03814147,0.22300617,0.09511965,-0.48886842,0.00474685,-0.01148572,0.40193900,0.35443380,-0.68623418,11.04060173,0.99939018,0.03102886,0.01600659,0.00049697,0.00300174,-0.00378924,0.00885619,-0.07944848,-0.08931503,0.00523004,22217612.00000000,-0.00000000,3146443013270536192.00000000,-4283.58056641,-3212832624867278848.00000000,2268976521773318144.00000000,-15326346240.00000000,0.00000000,75.03144836,-40536884887158784.00000000,17729961695711069818766217105637376.00000000,0.00000000
0.09093142,0.23450735,9.74641228,-0.05640393,-0.00319268,-0.02660563,0.22683716,0.09359741,-0.49435425,0.00000000,-0.00000000,0.31000000,-0.00200000,0.00300000,-0.01500000,0.99315792,0.01929842,0.00694201,-0.11496436,-0.00815732,0.01961741,-0.00505057,-0.19033100,0.36729833,-0.15716088,-0.00800996,0.00028171,-0.03861410,0.10876080,0.08345604,-0.00111344,0.02427820,0.02872393,0.01612818,-2.41563773,-1.68408895,12.49735165,0.52359879,0.00000000,0.00000000,1.00000000,0.04558900,0.00000000,1.00000000,77.85861206,30.00000000,-1459620352.00000000,0.00000000,-0.00000000,99.00000000,0.11302250,0.21008033,9.88357735,-0.01760474,-0.00801397,-0.04479037,0.21780206,0.08898193,-0.49900869,0.00489439,-0.01177045,0.40202022,0.35449603,-0.68622571,11.04084396,0.99939018,0.03102780,0.01600905,0.00049703,0.00309037,-0.00390188,0.00914518,-0.07943597,-0.08929884,0.00537900,22217612.00000000,-0.00000000,3146443013270536192.00000000,-4283.58056641,-3212832624867278848.00000000,2268976521773318144.00000000,-15326346240.00000000,0.00000000,75.03144836,-40536884887158784.00000000,17729961695711069818766217105637376.00000000,0.00000000
0.26800841,0.28236598,9.97613430,-0.06066084,-0.00212845,-0.02128450,0.22683716,0.09359741,-0.49435425,0.00000000,-0.00000000,0.31000000,-0.00200000,0.00300000,-0.01500000,0.99315757,0.01929197,0.00693764,-0.11496866,-0.00829220,0.01987768,-0.00516193,-0.19024915,0.36709890,-0.15706575,-0.00800996,0.00028171,-0.03861410,0.10876080,0.08345604,-0.00111344,0.02427820,0.02872393,0.01612818,-2.43442845,-1.70079482,12.49745655,0.52359879,0.00000000,0.00000000,1.00000000,0.04629800,0.00000000,1.00000000,77.85891724,30.00000000,-1459620352.00000000,0.00000000,-0.00000000,99.00000000,0.10431149,0.20110284,9.93851566,-0.02454344,-0.01428538,-0.05066049,0.21317309,0.08349321,-0.50808907,0.00497532,-0.01192661,0.40206477,0.35454300,-0.68620962,11.04089165,0.99939018,0.03102694,0.01601110,0.00049708,0.00313900,-0.00396369,0.00930375,-0.07942910,-0.08928994,0.00546075,22217612.00000000,-0.00000000,3146443013270536192.00000000,-4283.58056641,-3212832624867278848.00000000,2268976521773318144.00000000,-15326346240.00000000,0.00000000,75.03144836,-40536884887158784.00000000,17729961695711069818766217105637376.00000000,0.00000000
0.43072778,0.35176101,10.20106983,-0.06385351,-0.00319268,-0.03192675,0.22683716,0.09359741,-0.49435425,0.00000000,-0.00000000,0.31000000,-0.00200000,0.00300000,-0.01500000,0.99315685,0.01927937,0.00692913,-0.11497729,-0.00848216,0.02024413,-0.00531865,-0.19014235,0.36681050,-0.15688296,-0.00800996,0.00028171,-0.03861410,0.10876080,0.08345604,-0.00111344,0.02427820,0.02872393,0.01612818,-2.45200419,-1.71693110,12.49759579,0.52359879,0.00000000,0.00000000,1.00000000,0.04729700,0.00000000,1.00000000,77.85932159,30.00000000,-1459620352.00000000,0.00000000,-0.00000000,99.00000000,0.09698850,0.19350249,9.98748970,-0.03096620,-0.01986014,-0.05579513,0.20908648,0.07861557,-0.51617450,0.00508929,-0.01214648,0.40212747,0.35462445,-0.68617332,11.04085064,0.99939018,0.03102541,0.01601484,0.00049717,0.00320752,-0.00405077,0.00952713,-0.07941941,-0.08927739,0.00557594,22217612.00000000,-0.00000000,3146443013270536192.00000000,-4283.58056641,-3212832624867278848.00000000,2268976521773318144.00000000,-15326346240.00000000,0.00000000,75.03144836,-40536884887158784.00000000,17729961695711069818766217105637376.00000000,0.00000000
0.61019766,0.44029951,10.07663727,-0.07023886,-0.01170648,-0.04044056,0.22695923,0.09335327,-0.49551392,0.00000000,-0.00000000,0.31000000,-0.00200000,0.00300000,-0.01500000,0.99315572,0.01925886,0.00691546,-0.11499137,-0.00872765,0.02071755,-0.00552097,-0.19001222,0.36642969,-0.15658963,-0.00800996,0.00028171,-0.03861410,0.10876080,0.08345604,-0.00111344,0.02427820,0.02872393,0.01612818,-2.46833205,-1.73250782,12.49776459,0.52359879,0.00000000,0.00000000,1.00000000,0.04858900,0.00000000,1.00000000,77.85980988,30.00000000,-1459620352.00000000,0.00000000,-0.00000000,99.00000000,0.09187876,0.18743458,10.03170300,-0.03691921,-0.02479237,-0.06027174,0.20550758,0.07431059,-0.52332819,0.00523659,-0.01243053,0.40220839,0.35474399,-0.68611175,11.04067230,0.99939018,0.03102314,0.01602050,0.00049731,0.00329613,-0.00416337,0.00981592,-0.07940686,-0.08926114,0.00572494,22217612.00000000,-0.00000000,3146443013270536192.00000000,-4283.58056641,-3212832624867278848.00000000,2268976521773318144.00000000,-15326346240.00000000,0.00000000,75.03144836,-40536884887158784.00000000,17729961695711069818766217105637376.00000000,0.00000000
0.59344715,0.53840971,9.50472641,-0.07343154,-0.02660563,-0.04150478,0.22695923,0.09335327,-0.49551392,0.00000000,-0.00000000,0.31000000,-0.00200000,0.00300000,-0.01500000,0.99315500,0.01924532,0.00690657,-0.11500059,-0.00886384,0.02098013,-0.00563311,-0.18994214,0.36621481,-0.15639870,-0.00800996,0.00028171,-0.03861410,0.10876080,0.08345604,-0.00111344,0.02427820,0.02872393,0.01612818,-2.48336887,-1.74753129,12.49785137,0.52359879,0.00000000,0.00000000,1.00000000,0.04930600,0.00000000,1.00000000,77.86006165,30.00000000,-1459620352.00000000,0.00000000,-0.00000000,99.00000000,0.08958947,0.18315631,10.07109261,-0.04244430,-0.02915846,-0.06416777,0.20240435,0.07054200,-0.52961016,0.00531831,-0.01258808,0.40225324,0.35481405,-0.68607104,11.04051113,0.99939013,0.03102175,0.01602390,0.00049739,0.00334529,-0.00422585,0.00997614,-0.07939988,-0.08925212,0.00580763,22217612.00000000,-0.00000000,3146443013270536192.00000000,-4283.58056641,-3212832624867278848.00000000,2268976521773318144.00000000,-15326346240.00000000,0.00000000,75.03144836,-40536884887158784.00000000,17729961695711069818766217105637376.00000000,0.00000000
0.33261755,0.65566343,8.93999481,-0.07768843,-0.04256901,-0.05427548,0.22695923,0.09335327,-0.49551392,0.00000000,-0.00000000,0.31000000,-0.00200000,0.00300000,-0.01500000,0.99315387,0.01922385,0.00689270,-0.11501502,-0.00905198,0.02134275,-0.00578780,-0.18984537,0.36591488,-0.15610211,-0.00800996,0.00028171,-0.03861410,0.10876080,0.08345604,-0.00111344,0.02427820,0.02872393,0.01612818,-2.49708319,-1.76196933,12.49796486,0.52359879,0.00000000,0.00000000,1.00000000,0.05029700,0.00000000,1.00000000,77.86039734,30.00000000,-1459620352.00000000,0.00000000,-0.00000000,99.00000000,0.08991651,0.18104498,10.10419273,-0.04757404,-0.03305191,-0.06755090,0.19974688,0.06727671,-0.53507388,0.00543119,-0.01280565,0.40231514,0.35491106,-0.68600905,11.04021549,0.99939013,0.03101978,0.01602871,0.00049751,0.00341325,-0.00431218,0.01019749,-0.07939022,-0.08923963,0.00592193,22217612.00000000,-0.00000000,3146443013270536192.00000000,-4283.58056641,-3212832624867278848.00000000,2268976521773318144.00000000,-15326346240.00000000,0.00000000,75.03144836,-40536884887158784.00000000,17729961695711069818766217105637376.00000000,0.00000000
0.31347412,0.88538492,8.83949089,-0.07343154,-0.05321126,-0.05427548,0.22567749,0.09317017,-0.49563599,0.00000000,-0.00000000,0.31000000,-0.00200000,0.00300000,-0.01500000,0.99315220,0.01919254,0.00687275,-0.11503573,-0.00929709,0.02181501,-0.00598895,-0.18971638,0.36552358,-0.15568273,-0.00800996,0.00028171,-0.03861410,0.10876080,0.08345604,-0.00111344,0.02427820,0.02872393,0.01612818,-2.50944948,-1.77576482,12.49811554,0.52359879,0.00000000,0.00000000,1.00000000,0.05158900,0.00000000,1.00000000,77.86083984,30.00000000,-1459620352.00000000,0.00000000,-0.00000000,99.00000000,0.09211528,0.18167952,10.12951469,-0.05232834,-0.03656576,-0.07049243,0.19750430,0.06448293,-0.53976971,0.00557826,-0.01308901,0.40239558,0.35503218,-0.68592733,11.03975868,0.99939013,0.03101738,0.01603485,0.00049766,0.00350182,-0.00442471,0.01048591,-0.07937759,-0.08922330,0.00607099,22217612.00000000,-0.00000000,3146443013270536192.00000000,-4283.58056641,-3212832624867278848.00000000,2268976521773318144.00000000,-15326346240.00000000,0.00000000,75.03144836,-40536884887158784.00000000,17729961695711069818766217105637376.00000000,0.00000000
0.28236598,1.08639121,9.23432541,-0.06811041,-0.05853238,-0.05746816,0.22567749,0.09317017,-0.49563599,0.00000000,-0.00000000,0.31000000,-0.00200000,0.00300000,-0.01500000,0.99315125,0.01917368,0.00686086,-0.11504801,-0.00943155,0.02207401,-0.00609915,-0.18964252,0.36531091,-0.15544021,-0.00800996,0.00028171,-0.03861410,0.10876080,0.08345604,-0.00111344,0.02427820,0.02872393,0.01612818,-2.52045584,-1.78885233,12.49820518,0.52359879,0.00000000,0.00000000,1.00000000,0.05229800,0.00000000,1.00000000,77.86109924,30.00000000,-1459620352.00000000,0.00000000,-0.00000000,99.00000000,0.09565892,0.18580370,10.14688778,-0.05671131,-0.03977839,-0.07304657,0.19564423,0.06212830,-0.54374969,0.00565893,-0.01324441,0.40243965,0.35509300,-0.68588603,11.03948021,0.99939013,0.03101629,0.01603799,0.00049774,0.00355042,-0.00448645,0.01064412,-0.07937065,-0.08921433,0.00615279,22217612.00000000,-0.00000000,3146443013270536192.00000000,-4283.58056641,-3212832624867278848.00000000,2268976521773318144.00000000,-15326346240.00000000,0.00000000,75.03144836,-40536884887158784.00000000,17729961695711069818766217105637376.00000000,0.00000000
0.84709799,1.33525610,9.76076984,-0.05959661,-0.05640393,-0.07130308,0.22567749,0.09317017,-0.49563599,0.00000000,-0.00000000,0.31000000,-0.00200000,0.00300000,-0.01500000,0.99314976,0.01914493,0.00684290,-0.11506642,-0.00962089,0.02243867,-0.00625408,-0.18953174,0.36501837,-0.15508763,-0.00800996,0.00028171,-0.03861410,0.10876080,0.08345604,-0.00111344,0.02427820,0.02872393,0.01612818,-2.53011012,-1.80115163,12.49834824,0.52359879,0.00000000,0.00000000,1.00000000,0.05329700,0.00000000,1.00000000,77.86151123,30.00000000,-1459620352.00000000,0.00000000,-0.00000000,99.00000000,0.10079280,0.19413677,10.15753555,-0.06071617,-0.04274458,-0.07526930,0.19413593,0.06018017,-0.54706657,0.00577253,-0.01346320,0.40250164,0.35516658,-0.68584019,11.03906345,0.99939007,0.03101539,0.01604193,0.00049785,0.00361888,-0.00457343,0.01086693,-0.07936084,-0.08920167,0.00626807,22217612.00000000,-0.00000000,3146443013270536192.00000000,-4283.58056641,-3212832624867278848.00000000,2268976521773318144.00000000,-15326346240.00000000,0.00000000,75.03144836,-40536884887158784.00000000,17729961695711069818766217105637376.00000000,0.00000000
1.08399820,1.65112317,9.74401951,-0.04789013,-0.07130308,-0.08300956,0.22659302,0.09255981,-0.49520874,0.00000000,-0.00000000,0.31000000,-0.00200000,0.00300000,-0.01500000,0.99314779,0.01910523,0.00681818,-0.11509151,-0.00986556,0.02290980,-0.00645386,-0.18937524,0.36465535,-0.15462421,-0.00800996,0.00028171,-0.03861410,0.10876080,0.08345604,-0.00111344,0.02427820,0.02872393,0.01612818,-2.53844047,-1.81258094,12.49856186,0.52359879,0.00000000,0.00000000,1.00000000,0.05458900,0.00000000,1.00000000,77.86213684,30.00000000,-1459620352.00000000,0.00000000,-0.00000000,99.00000000,0.10855319,0.20747334,10.16292953,-0.06432383,-0.04551251,-0.07723587,0.19295160,0.05860595,-0.54977107,0.00591934,-0.01374588,0.40258154,0.35523763,-0.68580806,11.03850746,0.99939001,0.03101550,0.01604594,0.00049798,0.00370740,-0.00468589,0.01115490,-0.07934809,-0.08918527,0.00641719,22217612.00000000,-0.00000000,3146443013270536192.00000000,-4283.58056641,-3212832624867278848.00000000,2268976521773318144.00000000,-15326346240.00000000,0.00000000,75.03144836,-40536884887158784.00000000,17729961695711069818766217105637376.00000000,0.00000000
0.66523510,1.71812522,9.40183067,-0.03299098,-0.09897294,-0.09578026,0.22659302,0.09255981,-0.49520874,0.00000000,-0.00000000,0.31000000,-0.00200000,0.00300000,-0.01500000,0.99314666,0.01908224,0.00680385,-0.11510590,-0.00999957,0.02316785,-0.00656315,-0.18927929,0.36446813,-0.15436928,-0.00800996,0.00028171,-0.03861410,0.10876080,0.08345604,-0.00111344,0.02427820,0.02872393,0.01612818,-2.54552126,-1.82304299,12.49869633,0.52359879,0.00000000,0.00000000,1.00000000,0.05529700,0.00000000,1.00000000,77.86252594,30.00000000,-1459620352.00000000,0.00000000,-0.00000000,99.00000000,0.11909167,0.22647789,10.16378784,-0.06749631,-0.04816113,-0.07901835,0.19206569,0.05737427,-0.55191028,0.00599974,-0.01390071,0.40262529,0.35525811,-0.68581140,11.03820133,0.99938995,0.03101651,0.01604730,0.00049804,0.00375588,-0.00474751,0.01131264,-0.07934110,-0.08917627,0.00649892,22217612.00000000,-0.00000000,3146443013270536192.00000000,-4283.58056641,-3212832624867278848.00000000,2268976521773318144.00000000,-15326346240.00000000,0.00000000,75.03144836,-40536884887158784.00000000,17729961695711069818766217105637376.00000000,0.00000000
-0.07896676,1.33286321,9.17210865,-0.01915605,-0.12664279,-0.11067942,0.22659302,0.09255981,-0.49520874,0.00000000,-0.00000000,0.31000000,-0.00200000,0.00300000,-0.01500000,0.99314499,0.01904829,0.00678246,-0.11512706,-0.01018870,0.02353207,-0.00671717,-0.18912727,0.36422551,-0.15401177,-0.00800996,0.00028171,-0.03861410,0.10876080,0.08345604,-0.00111344,0.02427820,0.02872393,0.01612818,-2.55144310,-1.83240676,12.49891376,0.52359879,0.00000000,0.00000000,1.00000000,0.05629700,0.00000000,1.00000000,77.86315918,30.00000000,-1459620352.00000000,0.00000000,-0.00000000,99.00000000,0.13074291,0.25074273,10.16052246,-0.07018536,-0.05079350,-0.08068757,0.19145367,0.05645683,-0.55352843,0.00611322,-0.01411924,0.40268689,0.35525718,-0.68585503,11.03777313,0.99938983,0.03101967,0.01604787,0.00049810,0.00382434,-0.00483453,0.01153532,-0.07933118,-0.08916353,0.00661438,22217612.00000000,-0.00000000,3146443013270536192.00000000,-4283.58056641,-3212832624867278848.00000000,2268976521773318144.00000000,-15326346240.00000000,0.00000000,75.03144836,-40536884887158784.00000000,17729961695711069818766217105637376.00000000,0.00000000
-1.65590906,0.79684639,9.06203365,-0.00106423,-0.13302815,-0.10535829,0.23922729,0.09402466,-0.48971558,0.00000000,-0.00000000,0.31000000,-0.00200000,0.00300000,-0.01500000,0.99314278,0.01900282,0.00675329,-0.11515547,-0.01043278,0.02400229,-0.00691556,-0.18891174,0.36394575,-0.15355766,-0.00800996,0.00028171,-0.03861410,0.10876080,0.08345604,-0.00111344,0.02427820,0.02872393,0.01612818,-2.55632377,-1.84052336,12.49923420,0.52359879,0.00000000,0.00000000,1.00000000,0.05758900,0.00000000,1.00000000,77.86409760,30.00000000,-1459620352.00000000,0.00000000,-0.00000000,99.00000000,0.13999076,0.27845240,10.15362263,-0.07234168,-0.05348770,-0.08229831,0.19110769,0.05582922,-0.55466110,0.00625967,-0.01440137,0.40276623,0.35522127,-0.68597174,11.03723526,0.99938965,0.03102644,0.01604702,0.00049819,0.00391273,-0.00494694,0.01182283,-0.07931830,-0.08914703,0.00676358,22217612.00000000,-0.00000000,3146443013270536192.00000000,-4283.58056641,-3212832624867278848.00000000,2268976521773318144.00000000,-15326346240.00000000,0.00000000,75.03144836,-40536884887158784.00000000,17729961695711069818766217105637376.00000000,0.00000000
-2.84998226,0.04307278,8.94717312,0.00851380,-0.12557857,-0.06917463,0.23922729,0.09402466,-0.48971558,0.00000000,-0.00000000,0.31000000,-0.00200000,0.00300000,-0.01500000,0.99314153,0.01897727,0.00673642,-0.11517157,-0.01056625,0.02425951,-0.00702396,-0.18878835,0.36381260,-0.15331601,-0.00800996,0.00028171,-0.03861410,0.10876080,0.08345604,-0.00111344,0.02427820,0.02872393,0.01612818,-2.56035137,-1.84724855,12.49943161,0.52359879,0.00000000,0.00000000,1.00000000,0.05829600,0.00000000,1.00000000,77.86466980,30.00000000,-1459620352.00000000,0.00000000,-0.00000000,99.00000000,0.14161247,0.30681345,10.14293194,-0.07392654,-0.05626969,-0.08382536,0.19103295,0.05546890,-0.55533808,0.00633975,-0.01455570,0.40280959,0.35519165,-0.68607134,11.03695679,0.99938947,0.03103171,0.01604607,0.00049824,0.00396108,-0.00500844,0.01198010,-0.07931123,-0.08913799,0.00684524,22217612.00000000,-0.00000000,3146443013270536192.00000000,-4283.58056641,-3212832624867278848.00000000,2268976521773318144.00000000,-15326346240.00000000,0.00000000,75.03144836,-40536884887158784.00000000,17729961695711069818766217105637376.00000000,0.00000000
-2.33789468,-0.13639714,9.21757412,0.01489915,-0.09152336,-0.02979830,0.23922729,0.09402466,-0.48971558,0.00000000,-0.00000000,0.31000000,-0.00200000,0.00300000,-0.01500000,0.99313968,0.01894047,0.00671123,-0.11519501,-0.01075487,0.02462316,-0.00717694,-0.18861771,0.36365330,-0.15298812,-0.00800996,0.00028171,-0.03861410,0.10876080,0.08345604,-0.00111344,0.02427820,0.02872393,0.01612818,-2.56368232,-1.85247076,12.49974918,0.52359879,0.00000000,0.00000000,1.00000000,0.05929600,0.00000000,1.00000000,77.86560059,30.00000000,-1459620352.00000000,0.00000000,-0.00000000,99.00000000,0.13203637,0.33300072,10.12786102,-0.07492880,-0.05910308,-0.08515155,0.19121602,0.05535188,-0.55559647,0.00645292,-0.01477390,0.40287080,0.35515654,-0.68626440,11.03659248,0.99938923,0.03104145,0.01604499,0.00049836,0.00402942,-0.00509543,0.01220244,-0.07930118,-0.08912518,0.00696077,22217612.00000000,-0.00000000,3146443013270536192.00000000,-4283.58056641,-3212832624867278848.00000000,2268976521773318144.00000000,-15326346240.00000000,0.00000000,75.03144836,-40536884887158784.00000000,17729961695711069818766217105637376.00000000,0.00000000
-2.29960775,0.42833486,10.28482246,0.02022028,-0.04150478,-0.02022028,0.22537231,0.09304810,-0.49179077,0.00000000,-0.00000000,0.31000000,-0.00200000,0.00300000,-0.01500000,0.99313724,0.01889243,0.00667695,-0.11522599,-0.01099830,0.02509278,-0.00737409,-0.18841821,0.36348489,-0.15258645,-0.00800996,0.00028171,-0.03861410,0.10876080,0.08345604,-0.00111344,0.02427820,0.02872393,0.01612818,-2.56647062,-1.85614538,12.50021076,0.52359879,0.00000000,0.00000000,1.00000000,0.06058800,0.00000000,1.00000000,77.86694336,30.00000000,-1459620352.00000000,0.00000000,-0.00000000,99.00000000,0.11071445,0.35595271,10.10962296,-0.07535893,-0.06186176,-0.08615841,0.19161662,0.05545305,-0.55547899,0.00659898,-0.01505567,0.40294963,0.35514858,-0.68658078,11.03616905,0.99938875,0.03105691,0.01604521,0.00049862,0.00411767,-0.00520783,0.01248954,-0.07928812,-0.08910858,0.00711006,22217612.00000000,-0.00000000,3146443013270536192.00000000,-4283.58056641,-3212832624867278848.00000000,2268976521773318144.00000000,-15326346240.00000000,0.00000000,75.03144836,-40536884887158784.00000000,17729961695711069818766217105637376.00000000,0.00000000
-1.67026663,0.67002100,11.65597248,0.02447718,-0.01596338,-0.03405520,0.22537231,0.09304810,-0.49179077,0.00000000,-0.00000000,0.31000000,-0.00200000,0.00300000,-0.01500000,0.99313587,0.01886574,0.00665707,-0.11524340,-0.01113314,0.02535298,-0.00748319,-0.18832734,0.36341193,-0.15237504,-0.00800996,0.00028171,-0.03861410,0.10876080,0.08345604,-0.00111344,0.02427820,0.02872393,0.01612818,-2.56893539,-1.85833800,12.50048923,0.52359879,0.00000000,0.00000000,1.00000000,0.06130400,0.00000000,1.00000000,77.86775208,30.00000000,-1459620352.00000000,0.00000000,-0.00000000,99.00000000,0.07817502,0.37629119,10.09265804,-0.07523621,-0.06436545,-0.08680485,0.19218720,0.05574855,-0.55502570,0.00667989,-0.01521179,0.40299329,0.35517955,-0.68679279,11.03595924,0.99938840,0.03106705,0.01604689,0.00049883,0.00416654,-0.00527011,0.01264860,-0.07928085,-0.08909936,0.00719281,22217612.00000000,-0.00000000,3146443013270536192.00000000,-4283.58056641,-3212832624867278848.00000000,2268976521773318144.00000000,-15326346240.00000000,0.00000000,75.03144836,-40536884887158784.00000000,17729961695711069818766217105637376.00000000,0.00000000
-0.08853849,0.17229111,12.23506165,0.03405520,-0.01064225,-0.04576168,0.22537231,0.09304810,-0.49179077,0.00000000,-0.00000000,0.31000000,-0.00200000,0.00300000,-0.01500000,0.99313390,0.01882890,0.00662839,-0.11526773,-0.01132025,0.02571414,-0.00763436,-0.18823649,0.36333802,-0.15209037,-0.00800996,0.00028171,-0.03861410,0.10876080,0.08345604,-0.00111344,0.02427820,0.02872393,0.01612818,-2.57122350,-1.85916567,12.50089073,0.52359879,0.00000000,0.00000000,1.00000000,0.06229800,0.00000000,1.00000000,77.86892700,30.00000000,-1459620352.00000000,0.00000000,-0.00000000,99.00000000,0.03812413,0.39392996,10.08243084,-0.07458229,-0.06647077,-0.08710548,0.19289780,0.05621698,-0.55427265,0.00679215,-0.01542849,0.40305376,0.35528594,-0.68713623,11.03568649,0.99938780,0.03108331,0.01605205,0.00049926,0.00423437,-0.00535657,0.01286933,-0.07927071,-0.08908653,0.00730772,22217612.00000000,-0.00000000,3146443013270536192.00000000,-4283.58056641,-3212832624867278848.00000000,2268976521773318144.00000000,-15326346240.00000000,0.00000000,75.03144836,-40536884887158784.00000000,17729961695711069818766217105637376.00000000,0.00000000
1.38550770,-0.70830792,11.33053398,0.04789013,-0.00957803,-0.04150478,0.22329712,0.09414673,-0.49026489,0.00000000,-0.00000000,0.31000000,-0.00200000,0.00300000,-0.01500000,0.99313140,0.01878164,0.00658998,-0.11529937,-0.01156336,0.02618349,-0.00783039,-0.18816510,0.36327180,-0.15172037,-0.00800996,0.00028171,-0.03861410,0.10876080,0.08345604,-0.00111344,0.02427820,0.02872393,0.01612818,-2.57347751,-1.85878325,12.50139236,0.52359879,0.00000000,0.00000000,1.00000000,0.06359000,0.00000000,1.00000000,77.87039185,30.00000000,-1459620352.00000000,0.00000000,-0.00000000,99.00000000,-0.00146031,0.40726042,10.08123779,-0.07340927,-0.06809404,-0.08707730,0.19372126,0.05683935,-0.55325341,0.00693802,-0.01571009,0.40313217,0.35550809,-0.68763632,11.03533173,0.99938691,0.03110686,0.01606253,0.00049996,0.00432250,-0.00546897,0.01315608,-0.07925744,-0.08906978,0.00745711,22217612.00000000,-0.00000000,3146443013270536192.00000000,-4283.58056641,-3212832624867278848.00000000,2268976521773318144.00000000,-15326346240.00000000,0.00000000,75.03144836,-40536884887158784.00000000,17729961695711069818766217105637376.00000000,0.00000000
1.31611264,-1.43336630,8.60737705,0.04895436,-0.01809183,-0.01489915,0.22329712,0.09414673,-0.49026489,0.00000000,-0.00000000,0.31000000,-0.00200000,0.00300000,-0.01500000,0.99313003,0.01875629,0.00656847,-0.11531660,-0.01169657,0.02644067,-0.00793766,-0.18814722,0.36324587,-0.15151434,-0.00800996,0.00028171,-0.03861410,0.10876080,0.08345604,-0.00111344,0.02427820,0.02872393,0.01612818,-2.57592320,-1.85742164,12.50164509,0.52359879,0.00000000,0.00000000,1.00000000,0.06429800,0.00000000,1.00000000,77.87112427,30.00000000,-1459620352.00000000,0.00000000,-0.00000000,99.00000000,-0.03360473,0.41431344,10.08506584,-0.07173398,-0.06921168,-0.08671841,0.19462165,0.05759792,-0.55200064,0.00701794,-0.01586440,0.40317509,0.35566804,-0.68792903,11.03513050,0.99938631,0.03112062,0.01607001,0.00050042,0.00437077,-0.00553055,0.01331316,-0.07925015,-0.08906058,0.00753898,22217612.00000000,-0.00000000,3146443013270536192.00000000,-4283.58056641,-3212832624867278848.00000000,2268976521773318144.00000000,-15326346240.00000000,0.00000000,75.03144836,-40536884887158784.00000000,17729961695711069818766217105637376.00000000,0.00000000
0.22732855,-0.22254269,7.82488823,0.04256901,-0.01596338,0.02873408,0.22329712,0.09414673,-0.49026489,0.00000000,-0.00000000,0.31000000,-0.00200000,0.00300000,-0.01500000,0.99312812,0.01872154,0.00653766,-0.11534056,-0.01188453,0.02680352,-0.00808873,-0.18814503,0.36321637,-0.15122163,-0.00800996,0.00028171,-0.03861410,0.10876080,0.08345604,-0.00111344,0.02427820,0.02872393,0.01612818,-2.57868481,-1.85524225,12.50197697,0.52359879,0.00000000,0.00000000,1.00000000,0.06529700,0.00000000,1.00000000,77.87209320,30.00000000,-1459620352.00000000,0.00000000,-0.00000000,99.00000000,-0.05702446,0.41538018,10.08660507,-0.06960456,-0.06986757,-0.08599158,0.19557501,0.05847493,-0.55054581,0.00713072,-0.01608211,0.40323550,0.35593519,-0.68835467,11.03484058,0.99938554,0.03114063,0.01608245,0.00050113,0.00443887,-0.00561745,0.01353472,-0.07923980,-0.08904756,0.00765454,22217612.00000000,-0.00000000,3146443013270536192.00000000,-4283.58056641,-3212832624867278848.00000000,2268976521773318144.00000000,-15326346240.00000000,0.00000000,75.03144836,-40536884887158784.00000000,17729961695711069818766217105637376.00000000,0.00000000
-1.37593603,0.38047621,9.06682014,0.02341295,0.01489915,0.01064225,0.22555542,0.09457397,-0.48934937,0.00000000,-0.00000000,0.31000000,-0.00200000,0.00300000,-0.01500000,0.99312568,0.01867822,0.00649750,-0.11537082,-0.01212745,0.02727239,-0.00828347,-0.18816714,0.36318243,-0.15084794,-0.00800996,0.00028171,-0.03861410,0.10876080,0.08345604,-0.00111344,0.02427820,0.02872393,0.01612818,-2.58185267,-1.85238779,12.50238419,0.52359879,0.00000000,0.00000000,1.00000000,0.06658800,0.00000000,1.00000000,77.87327576,30.00000000,-1459620352.00000000,0.00000000,-0.00000000,99.00000000,-0.07561312,0.41319108,10.08281898,-0.06710342,-0.07010470,-0.08488265,0.19657634,0.05945466,-0.54891503,0.00727647,-0.01636343,0.40331340,0.35632539,-0.68891227,11.03447628,0.99938440,0.03116680,0.01610053,0.00050211,0.00452687,-0.00572976,0.01382089,-0.07922634,-0.08903065,0.00780391,22217612.00000000,-0.00000000,3146443013270536192.00000000,-4283.58056641,-3212832624867278848.00000000,2268976521773318144.00000000,-15326346240.00000000,0.00000000,75.03144836,-40536884887158784.00000000,17729961695711069818766217105637376.00000000,0.00000000
-2.97680759,-0.29911652,10.31832314,0.03618366,0.05321126,-0.03086253,0.22555542,0.09457397,-0.48934937,0.00000000,-0.00000000,0.31000000,-0.00200000,0.00300000,-0.01500000,0.99312437,0.01865540,0.00647536,-0.11538698,-0.01226107,0.02753024,-0.00839043,-0.18819457,0.36316416,-0.15064761,-0.00800996,0.00028171,-0.03861410,0.10876080,0.08345604,-0.00111344,0.02427820,0.02872393,0.01612818,-2.58557200,-1.84909594,12.50260162,0.52359879,0.00000000,0.00000000,1.00000000,0.06729800,0.00000000,1.00000000,77.87391663,30.00000000,-1459620352.00000000,0.00000000,-0.00000000,99.00000000,-0.09604876,0.40812063,10.07533932,-0.06430165,-0.06989197,-0.08348241,0.19762932,0.06052406,-0.54712927,0.00735664,-0.01651814,0.40335616,0.35656744,-0.68921959,11.03428650,0.99938381,0.03118119,0.01611170,0.00050269,0.00457525,-0.00579151,0.01397823,-0.07921892,-0.08902132,0.00788607,22217612.00000000,-0.00000000,3146443013270536192.00000000,-4283.58056641,-3212832624867278848.00000000,2268976521773318144.00000000,-15326346240.00000000,0.00000000,75.03144836,-40536884887158784.00000000,17729961695711069818766217105637376.00000000,0.00000000
0.37329742,0.05743037,10.15321064,0.05959661,0.12451434,-0.02660563,0.22555542,0.09457397,-0.48934937,0.00000000,-0.00000000,0.31000000,-0.00200000,0.00300000,-0.01500000,0.99312258,0.01862487,0.00644442,-0.11540891,-0.01244914,0.02789301,-0.00854066,-0.18825951,0.36313614,-0.15037598,-0.00800996,0.00028171,-0.03861410,0.10876080,0.08345604,-0.00111344,0.02427820,0.02872393,0.01612818,-2.58991003,-1.84558344,12.50290394,0.52359879,0.00000000,0.00000000,1.00000000,0.06829700,0.00000000,1.00000000,77.87479401,30.00000000,-1459620352.00000000,0.00000000,-0.00000000,99.00000000,-0.12033979,0.39894345,10.06499290,-0.06120453,-0.06909103,-0.08187160,0.19873147,0.06166994,-0.54521036,0.00746948,-0.01673581,0.40341625,0.35695553,-0.68964785,11.03404236,0.99938285,0.03120119,0.01612952,0.00050357,0.00464333,-0.00587840,0.01419953,-0.07920842,-0.08900815,0.00800169,22217612.00000000,-0.00000000,3146443013270536192.00000000,-4283.58056641,-3212832624867278848.00000000,2268976521773318144.00000000,-15326346240.00000000,0.00000000,75.03144836,-40536884887158784.00000000,17729961695711069818766217105637376.00000000,0.00000000
3.38839197,0.02153639,9.94981194,0.06278928,0.17878982,-0.03831211,0.22317505,0.09494019,-0.48989868,0.00000000,-0.00000000,0.31000000,-0.00200000,0.00300000,-0.01500000,0.99312037,0.01858773,0.00640519,-0.11543608,-0.01269233,0.02836176,-0.00873436,-0.18837349,0.36309308,-0.15004238,-0.00800996,0.00028171,-0.03861410,0.10876080,0.08345604,-0.00111344,0.02427820,0.02872393,0.01612818,-2.59494615,-1.84216988,12.50329685,0.52359879,0.00000000,0.00000000,1.00000000,0.06958800,0.00000000,1.00000000,77.87593842,30.00000000,-1459620352.00000000,0.00000000,-0.00000000,99.00000000,-0.14067930,0.38727006,10.05154800,-0.05780630,-0.06746973,-0.08005677,0.19986856,0.06287877,-0.54318285,0.00761540,-0.01701706,0.40349373,0.35751131,-0.69018894,11.03376484,0.99938166,0.03122636,0.01615496,0.00050477,0.00473132,-0.00599070,0.01448537,-0.07919478,-0.08899103,0.00815114,22217612.00000000,-0.00000000,3146443013270536192.00000000,-4283.58056641,-3212832624867278848.00000000,2268976521773318144.00000000,-15326346240.00000000,0.00000000,75.03144836,-40536884887158784.00000000,17729961695711069818766217105637376.00000000,0.00000000
4.12062931,-1.13664281,11.09363365,0.06066084,0.16708335,-0.04682591,0.22317505,0.09494019,-0.48989868,0.00000000,-0.00000000,0.31000000,-0.00200000,0.00300000,-0.01500000,0.99311918,0.01856870,0.00638437,-0.11545033,-0.01282612,0.02861954,-0.00884077,-0.18844417,0.36306229,-0.14986831,-0.00800996,0.00028171,-0.03861410,0.10876080,0.08345604,-0.00111344,0.02427820,0.02872393,0.01612818,-2.60081196,-1.83934844,12.50351620,0.52359879,0.00000000,0.00000000,1.00000000,0.07029800,0.00000000,1.00000000,77.87657928,30.00000000,-1459620352.00000000,0.00000000,-0.00000000,99.00000000,-0.14866672,0.37414595,10.03863811,-0.05414898,-0.06486885,-0.07810608,0.20102127,0.06413771,-0.54107165,0.00769567,-0.01717172,0.40353632,0.35783139,-0.69047362,11.03363323,0.99938107,0.03123957,0.01616957,0.00050544,0.00477970,-0.00605244,0.01464254,-0.07918725,-0.08898159,0.00823335,22217612.00000000,-0.00000000,3146443013270536192.00000000,-4283.58056641,-3212832624867278848.00000000,2268976521773318144.00000000,-15326346240.00000000,0.00000000,75.03144836,-40536884887158784.00000000,17729961695711069818766217105637376.00000000,0.00000000
4.79543591,-1.12467813,12.26617050,0.07236731,0.11706477,-0.09258759,0.22317505,0.09494019,-0.48989868,0.00000000,-0.00000000,0.31000000,-0.00200000,0.00300000,-0.01500000,0.99311763,0.01854407,0.00635658,-0.11546942,-0.01301447,0.02898218,-0.00899025,-0.18853940,0.36300188,-0.14962891,-0.00800996,0.00028171,-0.03861410,0.10876080,0.08345604,-0.00111344,0.02427820,0.02872393,0.01612818,-2.60756254,-1.83748329,12.50380611,0.52359879,0.00000000,0.00000000,1.00000000,0.07129700,0.00000000,1.00000000,77.87742615,30.00000000,-1459620352.00000000,0.00000000,-0.00000000,99.00000000,-0.13994329,0.35785744,10.03382683,-0.05025939,-0.06135149,-0.07620595,0.20217577,0.06543458,-0.53889871,0.00780868,-0.01738931,0.40359613,0.35827434,-0.69084346,11.03345871,0.99938017,0.03125674,0.01618979,0.00050635,0.00484779,-0.00613932,0.01486361,-0.07917663,-0.08896826,0.00834903,22217612.00000000,-0.00000000,3146443013270536192.00000000,-4283.58056641,-3212832624867278848.00000000,2268976521773318144.00000000,-15326346240.00000000,0.00000000,75.03144836,-40536884887158784.00000000,17729961695711069818766217105637376.00000000,0.00000000
3.81911969,-0.50490868,11.20849419,0.07768843,0.09152336,-0.15111998,0.22409058,0.09469604,-0.48855591,0.00000000,-0.00000000,0.31000000,-0.00200000,0.00300000,-0.01500000,0.99311566,0.01851519,0.00632303,-0.11549304,-0.01325819,0.02945103,-0.00918316,-0.18863264,0.36289042,-0.14931250,-0.00800996,0.00028171,-0.03861410,0.10876080,0.08345604,-0.00111344,0.02427820,0.02872393,0.01612818,-2.61527300,-1.83685386,12.50411892,0.52359879,0.00000000,0.00000000,1.00000000,0.07258900,0.00000000,1.00000000,77.87833405,30.00000000,-1459620352.00000000,0.00000000,-0.00000000,99.00000000,-0.11083698,0.33775494,10.04029179,-0.04611743,-0.05711618,-0.07461327,0.20332588,0.06675832,-0.53668070,0.00795491,-0.01767062,0.40367326,0.35879344,-0.69126159,11.03321838,0.99937916,0.03127627,0.01621353,0.00050741,0.00493587,-0.00625167,0.01514939,-0.07916283,-0.08895095,0.00849867,22217612.00000000,-0.00000000,3146443013270536192.00000000,-4283.58056641,-3212832624867278848.00000000,2268976521773318144.00000000,-15326346240.00000000,0.00000000,75.03144836,-40536884887158784.00000000,17729961695711069818766217105637376.00000000,0.00000000
1.77555561,-0.74180895,8.96153069,0.08194534,0.09471604,-0.15005575,0.22409058,0.09469604,-0.48855591,0.00000000,-0.00000000,0.31000000,-0.00200000,0.00300000,-0.01500000,0.99311459,0.01850099,0.00630600,-0.11550568,-0.01339289,0.02971007,-0.00928964,-0.18865432,0.36280420,-0.14913072,-0.00800996,0.00028171,-0.03861410,0.10876080,0.08345604,-0.00111344,0.02427820,0.02872393,0.01612818,-2.62406898,-1.83773947,12.50424767,0.52359879,0.00000000,0.00000000,1.00000000,0.07330300,0.00000000,1.00000000,77.87870789,30.00000000,-1459620352.00000000,0.00000000,-0.00000000,99.00000000,-0.06205678,0.31390402,10.05166054,-0.04171466,-0.05234460,-0.07349698,0.20446894,0.06809931,-0.53443038,0.00803573,-0.01782604,0.40371585,0.35902661,-0.69144815,11.03306961,0.99937874,0.03128510,0.01622426,0.00050789,0.00498454,-0.00631375,0.01530728,-0.07915518,-0.08894136,0.00858138,22217612.00000000,-0.00000000,3146443013270536192.00000000,-4283.58056641,-3212832624867278848.00000000,2268976521773318144.00000000,-15326346240.00000000,0.00000000,75.03144836,-40536884887158784.00000000,17729961695711069818766217105637376.00000000,0.00000000
1.59847867,-0.87581319,8.14314842,0.09152336,0.12451434,-0.11706477,0.22409058,0.09469604,-0.48855591,0.00000000,-0.00000000,0.31000000,-0.00200000,0.00300000,-0.01500000,0.99311292,0.01848382,0.00628456,-0.11552289,-0.01358039,0.03007054,-0.00943762,-0.18863077,0.36264241,-0.14887264,-0.00800996,0.00028171,-0.03861410,0.10876080,0.08345604,-0.00111344,0.02427820,0.02872393,0.01612818,-2.63403392,-1.84028769,12.50437450,0.52359879,0.00000000,0.00000000,1.00000000,0.07429700,0.00000000,1.00000000,77.87908173,30.00000000,-1459620352.00000000,0.00000000,-0.00000000,99.00000000,0.00057717,0.28533447,10.05875874,-0.03707251,-0.04715759,-0.07281097,0.20560206,0.06944897,-0.53216088,0.00814823,-0.01804233,0.40377504,0.35925451,-0.69163269,11.03285217,0.99937826,0.03129404,0.01623484,0.00050837,0.00505229,-0.00640016,0.01552702,-0.07914452,-0.08892797,0.00869654,22217612.00000000,-0.00000000,3146443013270536192.00000000,-4283.58056641,-3212832624867278848.00000000,2268976521773318144.00000000,-15326346240.00000000,0.00000000,75.03144836,-40536884887158784.00000000,17729961695711069818766217105637376.00000000,0.00000000
0.58387542,-0.08375262,9.61240864,0.08939491,0.16282645,-0.09045914,0.22390747,0.09469604,-0.48843384,0.00000000,-0.00000000,0.31000000,-0.00200000,0.00300000,-0.01500000,0.99311090,0.01846502,0.00625990,-0.11554498,-0.01382396,0.03053872,-0.00962953,-0.18852377,0.36237186,-0.14853936,-0.00800996,0.00028171,-0.03861410,0.10876080,0.08345604,-0.00111344,0.02427820,0.02872393,0.01612818,-2.64524651,-1.84463215,12.50449371,0.52359879,0.00000000,0.00000000,1.00000000,0.07558900,0.00000000,1.00000000,77.87942505,30.00000000,-1459620352.00000000,0.00000000,-0.00000000,99.00000000,0.06937462,0.25319529,10.05935574,-0.03222928,-0.04160583,-0.07241535,0.20672099,0.07079905,-0.52988541,0.00829438,-0.01832324,0.40385181,0.35941297,-0.69176364,11.03257370,0.99937791,0.03130072,0.01624239,0.00050871,0.00514034,-0.00651245,0.01581249,-0.07913063,-0.08891053,0.00884625,22217612.00000000,-0.00000000,3146443013270536192.00000000,-4283.58056641,-3212832624867278848.00000000,2268976521773318144.00000000,-15326346240.00000000,0.00000000,75.03144836,-40536884887158784.00000000,17729961695711069818766217105637376.00000000,0.00000000
0.28715184,-0.18186285,10.92134190,0.07449576,0.18411095,-0.11280787,0.22390747,0.09469604,-0.48843384,0.00000000,-0.00000000,0.31000000,-0.00200000,0.00300000,-0.01500000,0.99310970,0.01845669,0.00624825,-0.11555702,-0.01395755,0.03079552,-0.00973472,-0.18842480,0.36219057,-0.14835909,-0.00800996,0.00028171,-0.03861410,0.10876080,0.08345604,-0.00111344,0.02427820,0.02872393,0.01612818,-2.65775084,-1.85093510,12.50453949,0.52359879,0.00000000,0.00000000,1.00000000,0.07629800,0.00000000,1.00000000,77.87956238,30.00000000,-1459620352.00000000,0.00000000,-0.00000000,99.00000000,0.13556781,0.22093511,10.05788898,-0.02725399,-0.03566806,-0.07226342,0.20782076,0.07214155,-0.52761608,0.00837453,-0.01847731,0.40389392,0.35942742,-0.69177622,11.03242588,0.99937785,0.03130171,0.01624326,0.00050876,0.00518865,-0.00657406,0.01596911,-0.07912301,-0.08890095,0.00892841,22217612.00000000,-0.00000000,3146443013270536192.00000000,-4283.58056641,-3212832624867278848.00000000,2268976521773318144.00000000,-15326346240.00000000,0.00000000,75.03144836,-40536884887158784.00000000,17729961695711069818766217105637376.00000000,0.00000000
1.60805035,-0.49533695,10.28242970,0.07555999,0.19688165,-0.16495490,0.22390747,0.09469604,-0.48843384,0.00000000,-0.00000000,0.31000000,-0.00200000,0.00300000,-0.01500000,0.99310797,0.01844783,0.00623472,-0.11557403,-0.01414560,0.03115705,-0.00988268,-0.18823473,0.36189166,-0.14810804,-0.00800996,0.00028171,-0.03861410,0.10876080,0.08345604,-0.00111344,0.02427820,0.02872393,0.01612818,-2.67156553,-1.85936522,12.50457287,0.52359879,0.00000000,0.00000000,1.00000000,0.07729700,0.00000000,1.00000000,77.87966156,30.00000000,-1459620352.00000000,0.00000000,-0.00000000,99.00000000,0.19517988,0.19001262,10.05701160,-0.02221569,-0.02927582,-0.07244421,0.20889641,0.07346942,-0.52536452,0.00848736,-0.01869423,0.40395308,0.35935643,-0.69171542,11.03222466,0.99937803,0.03129954,0.01624035,0.00050863,0.00525669,-0.00666086,0.01618971,-0.07911225,-0.08888744,0.00904420,22217612.00000000,-0.00000000,3146443013270536192.00000000,-4283.58056641,-3212832624867278848.00000000,2268976521773318144.00000000,-15326346240.00000000,0.00000000,75.03144836,-40536884887158784.00000000,17729961695711069818766217105637376.00000000,0.00000000
2.35943103,-0.03828691,8.79881191,0.08726646,0.19581743,-0.14899153,0.22427368,0.09573364,-0.48818970,0.00000000,-0.00000000,0.31000000,-0.00200000,0.00300000,-0.01500000,0.99310565,0.01844016,0.00622129,-0.11559634,-0.01438840,0.03162404,-0.01007362,-0.18792656,0.36145127,-0.14778981,-0.00800996,0.00028171,-0.03861410,0.10876080,0.08345604,-0.00111344,0.02427820,0.02872393,0.01612818,-2.68671298,-1.87013614,12.50458622,0.52359879,0.00000000,0.00000000,1.00000000,0.07858900,0.00000000,1.00000000,77.87969971,30.00000000,-1459620352.00000000,0.00000000,-0.00000000,99.00000000,0.25207227,0.16032711,10.05398464,-0.01713075,-0.02235792,-0.07301025,0.20994425,0.07477824,-0.52314115,0.00863304,-0.01897443,0.40402946,0.35915193,-0.69153929,11.03197765,0.99937838,0.03129230,0.01623150,0.00050824,0.00534465,-0.00677308,0.01647489,-0.07909834,-0.08886996,0.00919397,22217612.00000000,-0.00000000,3146443013270536192.00000000,-4283.58056641,-3212832624867278848.00000000,2268976521773318144.00000000,-15326346240.00000000,0.00000000,75.03144836,-40536884887158784.00000000,17729961695711069818766217105637376.00000000,0.00000000
1.95263267,0.01675053,8.75334549,0.08726646,0.16389067,-0.06917463,0.22427368,0.09573364,-0.48818970,0.00000000,-0.00000000,0.31000000,-0.00200000,0.00300000,-0.01500000,0.99310428,0.01843805,0.00621633,-0.11560880,-0.01452131,0.03187976,-0.01017814,-0.18772167,0.36118129,-0.14762227,-0.00800996,0.00028171,-0.03861410,0.10876080,0.08345604,-0.00111344,0.02427820,0.02872393,0.01612818,-2.70316792,-1.88341618,12.50458813,0.52359879,0.00000000,0.00000000,1.00000000,0.07929700,0.00000000,1.00000000,77.87969971,30.00000000,-1459620352.00000000,0.00000000,-0.00000000,99.00000000,0.31113112,0.13227725,10.04625893,-0.01199926,-0.01494323,-0.07378451,0.21096198,0.07606567,-0.52095485,0.00871278,-0.01912786,0.40407124,0.35897481,-0.69139099,11.03185749,0.99937868,0.03128595,0.01622370,0.00050789,0.00539283,-0.00683457,0.01663113,-0.07909071,-0.08886039,0.00927606,22217612.00000000,-0.00000000,3146443013270536192.00000000,-4283.58056641,-3212832624867278848.00000000,2268976521773318144.00000000,-15326346240.00000000,0.00000000,75.03144836,-40536884887158784.00000000,17729961695711069818766217105637376.00000000,0.00000000
2.62504649,-0.34218928,9.83734417,0.07981689,0.12025744,-0.01277070,0.22427368,0.09573364,-0.48818970,0.00000000,-0.00000000,0.31000000,-0.00200000,0.00300000,-0.01500000,0.99310219,0.01843808,0.00621286,-0.11562668,-0.01470868,0.03224052,-0.01032554,-0.18737641,0.36075953,-0.14739776,-0.00800996,0.00028171,-0.03861410,0.10876080,0.08345604,-0.00111344,0.02427820,0.02872393,0.01612818,-2.72094393,-1.89932609,12.50458431,0.52359879,0.00000000,0.00000000,1.00000000,0.08029700,0.00000000,1.00000000,77.87969208,30.00000000,-1459620352.00000000,0.00000000,-0.00000000,99.00000000,0.37505743,0.10538135,10.03615475,-0.00686449,-0.00723134,-0.07447766,0.21194798,0.07732841,-0.51881343,0.00882521,-0.01934431,0.40413022,0.35862377,-0.69110829,11.03171349,0.99937934,0.03127360,0.01620808,0.00050720,0.00546085,-0.00692139,0.01685174,-0.07907996,-0.08884687,0.00939201,22217612.00000000,-0.00000000,3146443013270536192.00000000,-4283.58056641,-3212832624867278848.00000000,2268976521773318144.00000000,-15326346240.00000000,0.00000000,75.03144836,-40536884887158784.00000000,17729961695711069818766217105637376.00000000,0.00000000
1.42140174,0.05743037,10.66290569,0.07449576,0.08939491,0.00532113,0.22463989,0.09616089,-0.48770142,0.00000000,-0.00000000,0.31000000,-0.00200000,0.00300000,-0.01500000,0.99309939,0.01844194,0.00621296,-0.11564999,-0.01495009,0.03270584,-0.01051562,-0.18685152,0.36016151,-0.14712141,-0.00800996,0.00028171,-0.03861410,0.10876080,0.08345604,-0.00111344,0.02427820,0.02872393,0.01612818,-2.74003625,-1.91786683,12.50456905,0.52359879,0.00000000,0.00000000,1.00000000,0.08158900,0.00000000,1.00000000,77.87964630,30.00000000,-1459620352.00000000,0.00000000,-0.00000000,99.00000000,0.44402507,0.07915897,10.02758884,-0.00178985,0.00048767,-0.07492258,0.21290128,0.07856306,-0.51672292,0.00897006,-0.01962351,0.40420625,0.35802746,-0.69064659,11.03155804,0.99938041,0.03125324,0.01618144,0.00050604,0.00554865,-0.00703353,0.01713667,-0.07906610,-0.08882945,0.00954185,22217612.00000000,-0.00000000,3146443013270536192.00000000,-4283.58056641,-3212832624867278848.00000000,2268976521773318144.00000000,-15326346240.00000000,0.00000000,75.03144836,-40536884887158784.00000000,17729961695711069818766217105637376.00000000,0.00000000
-1.09117711,0.99067390,10.17714024,0.06917463,0.08620223,-0.02022028,0.22463989,0.09616089,-0.48770142,0.00000000,-0.00000000,0.31000000,-0.00200000,0.00300000,-0.01500000,0.99309784,0.01844611,0.00621545,-0.11566280,-0.01508215,0.03296059,-0.01061968,-0.18652120,0.35980690,-0.14697617,-0.00800996,0.00028171,-0.03861410,0.10876080,0.08345604,-0.00111344,0.02427820,0.02872393,0.01612818,-2.76032495,-1.93882465,12.50455475,0.52359879,0.00000000,0.00000000,1.00000000,0.08229700,0.00000000,1.00000000,77.87960815,30.00000000,-1459620352.00000000,0.00000000,-0.00000000,99.00000000,0.51151383,0.05582242,10.02078056,0.00318158,0.00798217,-0.07509488,0.21382132,0.07976723,-0.51468790,0.00904929,-0.01977635,0.40424785,0.35762364,-0.69034481,11.03148556,0.99938112,0.03123983,0.01616334,0.00050525,0.00559675,-0.00709497,0.01729278,-0.07905851,-0.08881992,0.00962397,22217612.00000000,-0.00000000,3146443013270536192.00000000,-4283.58056641,-3212832624867278848.00000000,2268976521773318144.00000000,-15326346240.00000000,0.00000000,75.03144836,-40536884887158784.00000000,17729961695711069818766217105637376.00000000,0.00000000
-2.85476804,1.26346815,8.97110271,0.05321126,0.09897294,-0.02766985,0.22463989,0.09616089,-0.48770142,0.00000000,-0.00000000,0.31000000,-0.00200000,0.00300000,-0.01500000,0.99309552,0.01845481,0.00622225,-0.11568078,-0.01526816,0.03331986,-0.01076646,-0.18600486,0.35927671,-0.14678121,-0.00800996,0.00028171,-0.03861410,0.10876080,0.08345604,-0.00111344,0.02427820,0.02872393,0.01612818,-2.78177118,-1.96204984,12.50452614,0.52359879,0.00000000,0.00000000,1.00000000,0.08329700,0.00000000,1.00000000,77.87952423,30.00000000,-1459620352.00000000,0.00000000,-0.00000000,99.00000000,0.56670934,0.03859123,10.01214027,0.00800744,0.01515566,-0.07499048,0.21470681,0.08093808,-0.51271313,0.00916089,-0.01999192,0.40430662,0.35696295,-0.68986523,11.03140640,0.99938226,0.03121843,0.01613367,0.00050398,0.00566462,-0.00718173,0.01751321,-0.07904782,-0.08880650,0.00973998,22217612.00000000,-0.00000000,3146443013270536192.00000000,-4283.58056641,-3212832624867278848.00000000,2268976521773318144.00000000,-15326346240.00000000,0.00000000,75.03144836,-40536884887158784.00000000,17729961695711069818766217105637376.00000000,0.00000000
-2.90980554,0.48337230,8.55473232,0.03724788,0.12025744,0.03724788,0.22561646,0.09634399,-0.48782349,0.00000000,-0.00000000,0.31000000,-0.00200000,0.00300000,-0.01500000,0.99309248,0.01846960,0.00623515,-0.11570374,-0.01550885,0.03378564,-0.01095682,-0.18529169,0.35856366,-0.14654648,-0.00800996,0.00028171,-0.03861410,0.10876080,0.08345604,-0.00111344,0.02427820,0.02872393,0.01612818,-2.80431128,-1.98741269,12.50450039,0.52359879,0.00000000,0.00000000,1.00000000,0.08459600,0.00000000,1.00000000,77.87944794,30.00000000,-1459620352.00000000,0.00000000,-0.00000000,99.00000000,0.60276997,0.02769394,9.99887276,0.01261728,0.02202854,-0.07448369,0.21555728,0.08207277,-0.51080346,0.00930531,-0.02027138,0.40438271,0.35602728,-0.68919748,11.03134441,0.99938387,0.03118849,0.01609158,0.00050218,0.00575267,-0.00729440,0.01779947,-0.07903399,-0.08878913,0.00989070,22217612.00000000,-0.00000000,3146443013270536192.00000000,-4283.58056641,-3212832624867278848.00000000,2268976521773318144.00000000,-15326346240.00000000,0.00000000,75.03144836,-40536884887158784.00000000,17729961695711069818766217105637376.00000000,0.00000000
-1.44772398,-0.26800841,9.46883202,0.03299098,0.12238589,0.10855097,0.22561646,0.09634399,-0.48782349,0.00000000,-0.00000000,0.31000000,-0.00200000,0.00300000,-0.01500000,0.99309087,0.01847942,0.00624430,-0.11571577,-0.01563920,0.03403815,-0.01106006,-0.18489397,0.35816911,-0.14643095,-0.00800996,0.00028171,-0.03861410,0.10876080,0.08345604,-0.00111344,0.02427820,0.02872393,0.01612818,-2.82771683,-2.01465106,12.50449562,0.52359879,0.00000000,0.00000000,1.00000000,0.08530100,0.00000000,1.00000000,77.87943268,30.00000000,-1459620352.00000000,0.00000000,-0.00000000,99.00000000,0.62004817,0.02032965,9.98261642,0.01693947,0.02866439,-0.07334423,0.21637383,0.08316924,-0.50896275,0.00938352,-0.02042289,0.40442401,0.35549992,-0.68882114,11.03133583,0.99938482,0.03117155,0.01606782,0.00050117,0.00580044,-0.00735554,0.01795481,-0.07902650,-0.08877973,0.00997251,22217612.00000000,-0.00000000,3146443013270536192.00000000,-4283.58056641,-3212832624867278848.00000000,2268976521773318144.00000000,-15326346240.00000000,0.00000000,75.03144836,-40536884887158784.00000000,17729961695711069818766217105637376.00000000,0.00000000
0.09332436,-0.02392932,10.32789516,0.02660563,0.09897294,0.11706477,0.22561646,0.09634399,-0.48782349,0.00000000,-0.00000000,0.31000000,-0.00200000,0.00300000,-0.01500000,0.99308860,0.01849568,0.00626019,-0.11573184,-0.01582334,0.03439539,-0.01120619,-0.18432811,0.35760376,-0.14628282,-0.00800996,0.00028171,-0.03861410,0.10876080,0.08345604,-0.00111344,0.02427820,0.02872393,0.01612818,-2.85187912,-2.04368401,12.50450993,0.52359879,0.00000000,0.00000000,1.00000000,0.08630000,0.00000000,1.00000000,77.87947845,30.00000000,-1459620352.00000000,0.00000000,-0.00000000,99.00000000,0.62360305,0.01451093,9.96731091,0.02092680,0.03507810,-0.07146380,0.21715668,0.08422570,-0.50719404,0.00949401,-0.02063724,0.40448245,0.35474786,-0.68827593,11.03135872,0.99938613,0.03114690,0.01603388,0.00049971,0.00586807,-0.00744216,0.01817490,-0.07901592,-0.08876646,0.01008845,22217612.00000000,-0.00000000,3146443013270536192.00000000,-4283.58056641,-3212832624867278848.00000000,2268976521773318144.00000000,-15326346240.00000000,0.00000000,75.03144836,-40536884887158784.00000000,17729961695711069818766217105637376.00000000,0.00000000
0.25125787,0.87581319,9.98331261,0.01809183,0.05427548,0.08620223,0.22482300,0.09713745,-0.48690796,0.00000000,-0.00000000,0.31000000,-0.00200000,0.00300000,-0.01500000,0.99308580,0.01851942,0.00628429,-0.11575088,-0.01605983,0.03485504,-0.01139438,-0.18360560,0.35687217,-0.14610921,-0.00800996,0.00028171,-0.03861410,0.10876080,0.08345604,-0.00111344,0.02427820,0.02872393,0.01612818,-2.87667727,-2.07439852,12.50453854,0.52359879,0.00000000,0.00000000,1.00000000,0.08758800,0.00000000,1.00000000,77.87956238,30.00000000,-1459620352.00000000,0.00000000,-0.00000000,99.00000000,0.61847186,0.01119050,9.95389843,0.02454112,0.04118638,-0.06894623,0.21790464,0.08524158,-0.50549847,0.00963590,-0.02091303,0.40455776,0.35378984,-0.68756717,11.03142643,0.99938780,0.03111476,0.01599059,0.00049785,0.00595516,-0.00755381,0.01845860,-0.07900234,-0.08874944,0.01023795,22217612.00000000,-0.00000000,3146443013270536192.00000000,-4283.58056641,-3212832624867278848.00000000,2268976521773318144.00000000,-15326346240.00000000,0.00000000,75.03144836,-40536884887158784.00000000,17729961695711069818766217105637376.00000000,0.00000000
-0.53123093,1.88084471,9.13142872,0.00957803,0.00744958,0.07449576,0.22482300,0.09713745,-0.48690796,0.00000000,-0.00000000,0.31000000,-0.00200000,0.00300000,-0.01500000,0.99308431,0.01853384,0.00629936,-0.11576024,-0.01618955,0.03510743,-0.01149777,-0.18321592,0.35647318,-0.14602388,-0.00800996,0.00028171,-0.03861410,0.10876080,0.08345604,-0.00111344,0.02427820,0.02872393,0.01612818,-2.90182853,-2.10642743,12.50456619,0.52359879,0.00000000,0.00000000,1.00000000,0.08829600,0.00000000,1.00000000,77.87963867,30.00000000,-1459620352.00000000,0.00000000,-0.00000000,99.00000000,0.60707766,0.01284406,9.93939304,0.02775154,0.04682380,-0.06591633,0.21861616,0.08621746,-0.50387579,0.00971373,-0.02106446,0.40459910,0.35327637,-0.68718296,11.03148556,0.99938875,0.03109726,0.01596736,0.00049684,0.00600301,-0.00761519,0.01861454,-0.07899490,-0.08874011,0.01032014,22217612.00000000,-0.00000000,3146443013270536192.00000000,-4283.58056641,-3212832624867278848.00000000,2268976521773318144.00000000,-15326346240.00000000,0.00000000,75.03144836,-40536884887158784.00000000,17729961695711069818766217105637376.00000000,0.00000000
-1.71333945,2.35943103,9.14578629,0.00212845,-0.02447718,0.10216562,0.22482300,0.09713745,-0.48690796,0.00000000,-0.00000000,0.31000000,-0.00200000,0.00300000,-0.01500000,0.99308240,0.01855589,0.00632293,-0.11577167,-0.01637222,0.03546335,-0.01164369,-0.18268001,0.35592231,-0.14592046,-0.00800996,0.00028171,-0.03861410,0.10876080,0.08345604,-0.00111344,0.02427820,0.02872393,0.01612818,-2.92719889,-2.13950467,12.50462818,0.52359879,0.00000000,0.00000000,1.00000000,0.08929600,0.00000000,1.00000000,77.87982178,30.00000000,-1459620352.00000000,0.00000000,-0.00000000,99.00000000,0.58985800,0.02162134,9.92174721,0.03054509,0.05180052,-0.06235107,0.21929055,0.08715298,-0.50232661,0.00982334,-0.02127801,0.40465745,0.35257658,-0.68666238,11.03160667,0.99938995,0.03107345,0.01593564,0.00049548,0.00607055,-0.00770186,0.01883477,-0.07898443,-0.08872700,0.01043623,22217612.00000000,-0.00000000,3146443013270536192.00000000,-4283.58056641,-3212832624867278848.00000000,2268976521773318144.00000000,-15326346240.00000000,0.00000000,75.03144836,-40536884887158784.00000000,17729961695711069818766217105637376.00000000,0.00000000
-2.46711302,1.94066799,9.77512741,0.00106423,-0.03405520,0.11706477,0.22390747,0.09591675,-0.48800659,0.00000000,-0.00000000,0.31000000,-0.00200000,0.00300000,-0.01500000,0.99308020,0.01858622,0.00635580,-0.11578371,-0.01660720,0.03592196,-0.01183193,-0.18201266,0.35523927,-0.14580983,-0.00800996,0.00028171,-0.03861410,0.10876080,0.08345604,-0.00111344,0.02427820,0.02872393,0.01612818,-2.95265794,-2.17330003,12.50474262,0.52359879,0.00000000,0.00000000,1.00000000,0.09058700,0.00000000,1.00000000,77.88015747,30.00000000,-1459620352.00000000,0.00000000,-0.00000000,99.00000000,0.56596136,0.03835319,9.90306091,0.03292702,0.05596971,-0.05817638,0.21992624,0.08804588,-0.50085282,0.00996432,-0.02155318,0.40473276,0.35171622,-0.68604016,11.03181267,0.99939150,0.03104481,0.01589656,0.00049381,0.00615765,-0.00781373,0.01911907,-0.07897099,-0.08871017,0.01058612,22217612.00000000,-0.00000000,3146443013270536192.00000000,-4283.58056641,-3212832624867278848.00000000,2268976521773318144.00000000,-15326346240.00000000,0.00000000,75.03144836,-40536884887158784.00000000,17729961695711069818766217105637376.00000000,0.00000000
-3.10841894,1.46447444,10.18671227,0.00425690,-0.02766985,0.10003716,0.22390747,0.09591675,-0.48800659,0.00000000,-0.00000000,0.31000000,-0.00200000,0.00300000,-0.01500000,0.99307919,0.01860372,0.00637491,-0.11578865,-0.01673600,0.03617358,-0.01193527,-0.18166494,0.35488650,-0.14575970,-0.00800996,0.00028171,-0.03861410,0.10876080,0.08345604,-0.00111344,0.02427820,0.02872393,0.01612818,-2.97793770,-2.20727825,12.50482178,0.52359879,0.00000000,0.00000000,1.00000000,0.09129600,0.00000000,1.00000000,77.88038635,30.00000000,-1459620352.00000000,0.00000000,-0.00000000,99.00000000,0.53278208,0.06268065,9.88667488,0.03491777,0.05927123,-0.05346810,0.22052050,0.08889337,-0.49945655,0.01004160,-0.02170415,0.40477410,0.35127726,-0.68573833,11.03195000,0.99939221,0.03103082,0.01587657,0.00049296,0.00620548,-0.00787518,0.01927520,-0.07896363,-0.08870095,0.01066844,22217612.00000000,-0.00000000,3146443013270536192.00000000,-4283.58056641,-3212832624867278848.00000000,2268976521773318144.00000000,-15326346240.00000000,0.00000000,75.03144836,-40536884887158784.00000000,17729961695711069818766217105637376.00000000,0.00000000
-3.20413613,1.19168019,10.15081787,-0.00319268,-0.02234873,0.07981689,0.22390747,0.09591675,-0.48800659,0.00000000,-0.00000000,0.31000000,-0.00200000,0.00300000,-0.01500000,0.99307799,0.01862936,0.00640293,-0.11579310,-0.01691722,0.03652801,-0.01208097,-0.18121207,0.35442990,-0.14570044,-0.00800996,0.00028171,-0.03861410,0.10876080,0.08345604,-0.00111344,0.02427820,0.02872393,0.01612818,-3.00293136,-2.24110866,12.50494957,0.52359879,0.00000000,0.00000000,1.00000000,0.09229600,0.00000000,1.00000000,77.88076019,30.00000000,-1459620352.00000000,0.00000000,-0.00000000,99.00000000,0.48641247,0.09390330,9.87337494,0.03653137,0.06173120,-0.04844099,0.22107281,0.08969449,-0.49813810,0.01015033,-0.02191680,0.40483242,0.35072520,-0.68538594,11.03216839,0.99939311,0.03101432,0.01585137,0.00049192,0.00627290,-0.00796185,0.01949541,-0.07895329,-0.08868801,0.01078456,22217612.00000000,-0.00000000,3146443013270536192.00000000,-4283.58056641,-3212832624867278848.00000000,2268976521773318144.00000000,-15326346240.00000000,0.00000000,75.03144836,-40536884887158784.00000000,17729961695711069818766217105637376.00000000,0.00000000
-3.05577421,0.62455529,10.01681423,-0.02022028,-0.02766985,0.06385351,0.22555542,0.09481812,-0.48709106,0.00000000,-0.00000000,0.31000000,-0.00200000,0.00300000,-0.01500000,0.99307686,0.01866340,0.00644004,-0.11579552,-0.01715049,0.03698490,-0.01226899,-0.18069400,0.35390389,-0.14563587,-0.00800996,0.00028171,-0.03861410,0.10876080,0.08345604,-0.00111344,0.02427820,0.02872393,0.01612818,-3.02751827,-2.27449203,12.50513077,0.52359879,0.00000000,0.00000000,1.00000000,0.09358700,0.00000000,1.00000000,77.88128662,30.00000000,-1459620352.00000000,0.00000000,-0.00000000,99.00000000,0.42427745,0.13008952,9.86183167,0.03775021,0.06342272,-0.04327647,0.22158647,0.09044775,-0.49689621,0.01029030,-0.02219094,0.40490761,0.35013160,-0.68504441,11.03247547,0.99939406,0.03099806,0.01582416,0.00049082,0.00635988,-0.00807373,0.01977972,-0.07894000,-0.08867139,0.01093446,22217612.00000000,-0.00000000,3146443013270536192.00000000,-4283.58056641,-3212832624867278848.00000000,2268976521773318144.00000000,-15326346240.00000000,0.00000000,75.03144836,-40536884887158784.00000000,17729961695711069818766217105637376.00000000,0.00000000
-2.26849961,0.16032645,9.95220470,-0.03086253,-0.03831211,0.05959661,0.22555542,0.09481812,-0.48709106,0.00000000,-0.00000000,0.31000000,-0.00200000,0.00300000,-0.01500000,0.99307644,0.01868242,0.00646071,-0.11579500,-0.01727844,0.03723564,-0.01237222,-0.18045598,0.35365301,-0.14560610,-0.00800996,0.00028171,-0.03861410,0.10876080,0.08345604,-0.00111344,0.02427820,0.02872393,0.01612818,-3.05144000,-2.30701852,12.50523663,0.52359879,0.00000000,0.00000000,1.00000000,0.09429600,0.00000000,1.00000000,77.88159180,30.00000000,-1459620352.00000000,0.00000000,-0.00000000,99.00000000,0.34783581,0.16717161,9.85119438,0.03854642,0.06442572,-0.03804675,0.22206643,0.09115025,-0.49572906,0.01036706,-0.02234138,0.40494892,0.34988913,-0.68492508,11.03265762,0.99939442,0.03099217,0.01581296,0.00049037,0.00640765,-0.00813519,0.01993585,-0.07893271,-0.08866228,0.01101679,22217612.00000000,-0.00000000,3146443013270536192.00000000,-4283.58056641,-3212832624867278848.00000000,2268976521773318144.00000000,-15326346240.00000000,0.00000000,75.03144836,-40536884887158784.00000000,17729961695711069818766217105637376.00000000,0.00000000
-1.48601091,0.55516022,9.94263268,-0.02766985,-0.05533971,0.06172506,0.22555542,0.09481812,-0.48709106,0.00000000,-0.00000000,0.31000000,-0.00200000,0.00300000,-0.01500000,0.99307615,0.01870948,0.00648997,-0.11579165,-0.01745863,0.03758899,-0.01251779,-0.18019475,0.35335207,-0.14557067,-0.00800996,0.00028171,-0.03861410,0.10876080,0.08345604,-0.00111344,0.02427820,0.02872393,0.01612818,-3.07457018,-2.33846307,12.50539398,0.52359879,0.00000000,0.00000000,1.00000000,0.09529600,0.00000000,1.00000000,77.88204956,30.00000000,-1459620352.00000000,0.00000000,-0.00000000,99.00000000,0.26268512,0.20168677,9.84198284,0.03892737,0.06479572,-0.03276388,0.22251530,0.09180147,-0.49463522,0.01047518,-0.02255339,0.40500712,0.34968084,-0.68485165,11.03292751,0.99939471,0.03098810,0.01580318,0.00049001,0.00647501,-0.00822188,0.02015608,-0.07892247,-0.08864947,0.01113290,22217612.00000000,-0.00000000,3146443013270536192.00000000,-4283.58056641,-3212832624867278848.00000000,2268976521773318144.00000000,-15326346240.00000000,0.00000000,75.03144836,-40536884887158784.00000000,17729961695711069818766217105637376.00000000,0.00000000
-1.00263858,1.21560955,9.93784714,-0.02873408,-0.07343154,0.02447718,0.22476196,0.09463501,-0.48703003,0.00000000,-0.00000000,0.31000000,-0.00200000,0.00300000,-0.01500000,0.99307615,0.01874442,0.00652752,-0.11578394,-0.01769096,0.03804475,-0.01270567,-0.17995682,0.35302898,-0.14553057,-0.00800996,0.00028171,-0.03861410,0.10876080,0.08345604,-0.00111344,0.02427820,0.02872393,0.01612818,-3.09679604,-2.36859775,12.50560284,0.52359879,0.00000000,0.00000000,1.00000000,0.09658700,0.00000000,1.00000000,77.88265991,30.00000000,-1459620352.00000000,0.00000000,-0.00000000,99.00000000,0.17543796,0.23371223,9.83498478,0.03892702,0.06453828,-0.02750162,0.22293337,0.09240277,-0.49361253,0.01061457,-0.02282685,0.40508229,0.34959048,-0.68487430,11.03328896,0.99939477,0.03098812,0.01579858,0.00048986,0.00656198,-0.00833382,0.02044042,-0.07890929,-0.08863300,0.01128280,22217612.00000000,-0.00000000,3146443013270536192.00000000,-4283.58056641,-3212832624867278848.00000000,2268976521773318144.00000000,-15326346240.00000000,0.00000000,75.03144836,-40536884887158784.00000000,17729961695711069818766217105637376.00000000,0.00000000
-0.51448041,1.40465117,10.02877808,-0.03618366,-0.09152336,-0.04682591,0.22476196,0.09463501,-0.48703003,0.00000000,-0.00000000,0.31000000,-0.00200000,0.00300000,-0.01500000,0.99307632,0.01876345,0.00654780,-0.11577795,-0.01781849,0.03829494,-0.01280884,-0.17987907,0.35288709,-0.14551005,-0.00800996,0.00028171,-0.03861410,0.10876080,0.08345604,-0.00111344,0.02427820,0.02872393,0.01612818,-3.11792088,-2.39709020,12.50571537,0.52359879,0.00000000,0.00000000,1.00000000,0.09729600,0.00000000,1.00000000,77.88298798,30.00000000,-1459620352.00000000,0.00000000,-0.00000000,99.00000000,0.09089269,0.26551253,9.83027172,0.03855913,0.06361358,-0.02249438,0.22332086,0.09295555,-0.49265760,0.01069109,-0.02297696,0.40512353,0.34963605,-0.68495059,11.03349113,0.99939466,0.03099100,0.01580034,0.00048996,0.00660976,-0.00839531,0.02059658,-0.07890206,-0.08862396,0.01136511,22217612.00000000,-0.00000000,3146443013270536192.00000000,-4283.58056641,-3212832624867278848.00000000,2268976521773318144.00000000,-15326346240.00000000,0.00000000,75.03144836,-40536884887158784.00000000,17729961695711069818766217105637376.00000000,0.00000000
-0.08375262,0.94281524,9.93784714,-0.04576168,-0.10535829,-0.09790871,0.22476196,0.09463501,-0.48703003,0.00000000,-0.00000000,0.31000000,-0.00200000,0.00300000,-0.01500000,0.99307686,0.01878984,0.00657558,-0.11576732,-0.01799833,0.03864768,-0.01295432,-0.17983831,0.35273668,-0.14548174,-0.00800996,0.00028171,-0.03861410,0.10876080,0.08345604,-0.00111344,0.02427820,0.02872393,0.01612818,-3.13783908,-2.42368197,12.50587082,0.52359879,0.00000000,0.00000000,1.00000000,0.09829600,0.00000000,1.00000000,77.88344574,30.00000000,-1459620352.00000000,0.00000000,-0.00000000,99.00000000,0.01182137,0.29842880,9.82709980,0.03781527,0.06197330,-0.01804695,0.22367853,0.09346163,-0.49176776,0.01079900,-0.02318861,0.40518174,0.34982431,-0.68514758,11.03377724,0.99939430,0.03099908,0.01580841,0.00049034,0.00667717,-0.00848205,0.02081684,-0.07889189,-0.08861124,0.01148120,22217612.00000000,-0.00000000,3146443013270536192.00000000,-4283.58056641,-3212832624867278848.00000000,2268976521773318144.00000000,-15326346240.00000000,0.00000000,75.03144836,-40536884887158784.00000000,17729961695711069818766217105637376.00000000,0.00000000
-0.36133274,0.36372569,9.73923397,-0.05001858,-0.10961519,-0.12664279,0.22512817,0.09542847,-0.48703003,0.00000000,-0.00000000,0.31000000,-0.00200000,0.00300000,-0.01500000,0.99307787,0.01882306,0.00661000,-0.11575123,-0.01823072,0.03910324,-0.01314224,-0.17986669,0.35260516,-0.14544566,-0.00800996,0.00028171,-0.03861410,0.10876080,0.08345604,-0.00111344,0.02427820,0.02872393,0.01612818,-3.15644002,-2.44810319,12.50606632,0.52359879,0.00000000,0.00000000,1.00000000,0.09958800,0.00000000,1.00000000,77.88401031,30.00000000,-1459620352.00000000,0.00000000,-0.00000000,99.00000000,-0.06110463,0.33183610,9.82425213,0.03670001,0.05960786,-0.01437100,0.22400737,0.09392399,-0.49094144,0.01093843,-0.02346195,0.40525690,0.35021353,-0.68551493,11.03414726,0.99939352,0.03101460,0.01582542,0.00049112,0.00676432,-0.00859415,0.02110145,-0.07887877,-0.08859482,0.01163117,22217612.00000000,-0.00000000,3146443013270536192.00000000,-4283.58056641,-3212832624867278848.00000000,2268976521773318144.00000000,-15326346240.00000000,0.00000000,75.03144836,-40536884887158784.00000000,17729961695711069818766217105637376.00000000,0.00000000
-0.27040133,-0.24647202,9.53104877,-0.05640393,-0.11493631,-0.14473462,0.22512817,0.09542847,-0.48703003,0.00000000,-0.00000000,0.31000000,-0.00200000,0.00300000,-0.01500000,0.99307859,0.01884061,0.00662781,-0.11574146,-0.01835792,0.03935251,-0.01324505,-0.17992321,0.35256588,-0.14542675,-0.00800996,0.00028171,-0.03861410,0.10876080,0.08345604,-0.00111344,0.02427820,0.02872393,0.01612818,-3.17357087,-2.47007847,12.50617027,0.52359879,0.00000000,0.00000000,1.00000000,0.10029500,0.00000000,1.00000000,77.88431549,30.00000000,-1459620352.00000000,0.00000000,-0.00000000,99.00000000,-0.12850638,0.36371046,9.82076168,0.03523801,0.05656083,-0.01157392,0.22430800,0.09434623,-0.49017766,0.01101475,-0.02361150,0.40529805,0.35050038,-0.68577480,11.03435230,0.99939299,0.03102574,0.01583805,0.00049169,0.00681204,-0.00865551,0.02125719,-0.07887159,-0.08858583,0.01171323,22217612.00000000,-0.00000000,3146443013270536192.00000000,-4283.58056641,-3212832624867278848.00000000,2268976521773318144.00000000,-15326346240.00000000,0.00000000,75.03144836,-40536884887158784.00000000,17729961695711069818766217105637376.00000000,0.00000000
-0.23690028,-0.71070087,9.52147675,-0.05959661,-0.12238589,-0.16921180,0.22512817,0.09542847,-0.48703003,0.00000000,-0.00000000,0.31000000,-0.00200000,0.00300000,-0.01500000,0.99210435,0.00870626,-0.00141462,-0.12510470,-0.00020317,0.00012652,-0.00008743,0.00087810,-0.00019773,-0.00030604,-0.00800997,0.00028168,-0.03861409,0.10876080,0.08345604,-0.00111348,0.02427824,0.02872393,0.01612820,-3.18914700,-2.48939681,12.50632000,0.52359879,0.00000000,0.00000000,1.00000000,0.10129600,0.00000000,1.00000000,77.88475037,30.00000000,-1459620352.00000000,0.00000000,-0.00000000,99.00000000,-0.19030148,0.39114469,9.81644917,0.03345318,0.05289641,-0.00973709,0.22458126,0.09473079,-0.48947489,0.00012190,-0.00007591,0.40003496,0.00545050,-0.00843618,10.70366764,0.99999988,0.00039408,0.00025461,0.00000010,0.00681166,-0.00865545,0.02141749,-0.07887994,-0.08858411,0.01183846,22217612.00000000,-0.00000000,3146443013270536192.00000000,-4283.58056641,-3212832624867278848.00000000,2268976521773318144.00000000,-15326346240.00000000,0.00000000,75.03144836,-40536884887158784.00000000,17729961695711069818766217105637376.00000000,0.00000000
-0.58866131,-0.62694824,9.49036884,-0.06385351,-0.12877125,-0.20965235,0.22378540,0.09616089,-0.48721313,0.00000000,-0.00000000,0.31000000,-0.00200000,0.00300000,-0.01500000,0.99210662,0.00873538,-0.00138696,-0.12508540,-0.00020256,0.00012667,-0.00008780,0.00047627,0.00011142,-0.00028635,-0.00800997,0.00028168,-0.03861409,0.10876080,0.08345604,-0.00111348,0.02427824,0.02872393,0.01612820,-3.20308757,-2.50587010,12.50651836,0.52359879,0.00000000,0.00000000,1.00000000,0.10258800,0.00000000,1.00000000,77.88533020,30.00000000,-1459620352.00000000,0.00000000,-0.00000000,99.00000000,-0.24635284,0.41158780,9.81156254,0.03136056,0.04867323,-0.00895800,0.22482722,0.09508057,-0.48883086,0.00012153,-0.00007600,0.40003514,0.00617291,-0.00899293,10.70383167,0.99999988,0.00042008,0.00028835,0.00000012,0.00681144,-0.00865557,0.02162438,-0.07889074,-0.08858188,0.01200007,22217612.00000000,-0.00000000,3146443013270536192.00000000,-4283.58056641,-3212832624867278848.00000000,2268976521773318144.00000000,-15326346240.00000000,0.00000000,75.03144836,-40536884887158784.00000000,17729961695711069818766217105637376.00000000,0.00000000
-0.41637018,-0.47619349,9.31329155,-0.07768843,-0.13302815,-0.24902868,0.22378540,0.09616089,-0.48721313,0.00000000,-0.00000000,0.31000000,-0.00200000,0.00300000,-0.01500000,0.99210781,0.00875026,-0.00137337,-0.12507498,-0.00020240,0.00012688,-0.00008800,0.00022393,0.00029798,-0.00027949,-0.00800997,0.00028168,-0.03861409,0.10876080,0.08345604,-0.00111348,0.02427824,0.02872393,0.01612820,-3.21529341,-2.51936889,12.50663185,0.52359879,0.00000000,0.00000000,1.00000000,0.10329500,0.00000000,1.00000000,77.88565826,30.00000000,-1459620352.00000000,0.00000000,-0.00000000,99.00000000,-0.29722968,0.42418006,9.80581188,0.02895860,0.04394280,-0.00933109,0.22504537,0.09539948,-0.48824292,0.00012144,-0.00007613,0.40003520,0.00662692,-0.00932910,10.70392990,0.99999988,0.00043578,0.00030956,0.00000013,0.00681140,-0.00865570,0.02173758,-0.07889665,-0.08858065,0.01208849,22217612.00000000,-0.00000000,3146443013270536192.00000000,-4283.58056641,-3212832624867278848.00000000,2268976521773318144.00000000,-15326346240.00000000,0.00000000,75.03144836,-40536884887158784.00000000,17729961695711069818766217105637376.00000000,0.00000000
0.27040133,-0.49055108,9.16493034,-0.08513802,-0.12557857,-0.25647825,0.22378540,0.09616089,-0.48721313,0.00000000,-0.00000000,0.31000000,-0.00200000,0.00300000,-0.01500000,0.99210942,0.00876966,-0.00135653,-0.12506102,-0.00020257,0.00012745,-0.00008828,-0.00017567,0.00057809,-0.00027729,-0.00800997,0.00028168,-0.03861409,0.10876080,0.08345604,-0.00111348,0.02427824,0.02872393,0.01612820,-3.22568202,-2.52976346,12.50680637,0.52359879,0.00000000,0.00000000,1.00000000,0.10429600,0.00000000,1.00000000,77.88616943,30.00000000,-1459620352.00000000,0.00000000,-0.00000000,99.00000000,-0.34250599,0.42936012,9.79821301,0.02623606,0.03876467,-0.01087573,0.22523679,0.09569009,-0.48770821,0.00012154,-0.00007647,0.40003535,0.00734653,-0.00983425,10.70408630,0.99999982,0.00045937,0.00034316,0.00000016,0.00681155,-0.00865603,0.02189787,-0.07890502,-0.08857889,0.01221368,22217612.00000000,-0.00000000,3146443013270536192.00000000,-4283.58056641,-3212832624867278848.00000000,2268976521773318144.00000000,-15326346240.00000000,0.00000000,75.03144836,-40536884887158784.00000000,17729961695711069818766217105637376.00000000,0.00000000
