accel_x,accel_y,accel_z,gyro_yaw,gyro_pitch,gyro_roll,mag_x,mag_y,mag_z,gps_pos_north,gps_pos_west,gps_pos_up,gps_vel_north,gps_vel_west,gps_vel_up,state_q_vec_w,state_q_vec_x,state_q_vec_y,state_q_vec_z,state_pos_north,state_pos_west,state_pos_up,state_vel_north,state_vel_west,state_vel_up,gyro_bias_yaw,gyro_bias_pitch,gyro_bias_roll,accel_bias_x,accel_bias_y,accel_bias_z,mag_bias_x,mag_bias_y,mag_bias_z,gimbal_yaw_raw,gimbal_pitch_raw,thrust_N,roll_rad_sec_squared,target_pos_north,target_pos_west,target_pos_up,elapsed_time,GND_flag,flight_armed,thrust_perc,diffy_perc,rtk_status,gps_hor_prec,gps_ver_prec,gps_sat_count,filtered_accel_x,filtered_accel_y,filtered_accel_z,filtered_gyro_x,filtered_gyro_y,filtered_gyro_z,filtered_mag_x,filtered_mag_y,filtered_mag_z,velocity_target_x,velocity_target_y,velocity_target_z,accel_target_x,accel_target_y,accel_target_z,attitude_target[0],attitude_target[1],attitude_target[2],attitude_target[3],velocity_integrator_x,velocity_integrator_y,velocity_integrator_z,attitude_integrator_x,attitude_integrator_y,attitude_integrator_z,posCovNN,posCovNE,posCovND,posCovEE,posCovED,posCovDD,velCovNN,velCovNE,velCovND,velCovEE,velCovED,velCovDD
0.08853849,0.26082960,9.78948498,-0.00957803,0.00000000,-0.04576168,0.24786377,0.06542969,-0.48663330,0.00000000,0.00000000,0.31000000,0.00000000,0.00000000,0.00000000,-0.99629426,-0.01048807,0.00140028,0.08535721,0.00039761,0.00280435,0.00003130,-0.22898528,0.32649347,0.00474485,-0.00443667,0.00060609,-0.04086943,0.06034561,0.02900566,0.01561141,0.01923154,0.01637741,0.01409503,0.00000000,0.00000000,0.00000000,0.00000000,0.00000000,0.00000000,0.00000000,0.00121400,0.00000000,1.00000000,0.00000000,0.00000000,354417344.00000000,0.00000000,0.00000000,119.00000000,0.99888974,0.99909955,1.01070619,0.99877018,0.99878186,0.99872619,0.99908382,0.99886161,0.99818915,-0.00023857,-0.00168261,-0.00001252,0.41184291,-0.59082776,9.80150032,0.99932742,0.03009208,0.02094780,0.00063079,0.00009885,-0.00011078,-0.00000866,-0.07997850,-0.08996984,0.00010400,21177228.00000000,-0.00000000,-3146434217177513984.00000000,4267.56494141,-3211728715192991744.00000000,0.00000000,-0.00000000,0.00000000,75.03138733,-2594362831801417728.00000000,17729961695711069818766217105637376.00000000,0.00000000
0.08853849,0.24647202,9.79666424,-0.01064225,-0.00106423,-0.03937633,0.24786377,0.06542969,-0.48663330,0.00000000,-0.00000000,0.31000000,0.01100000,-0.00500000,-0.00100000,-0.99636179,-0.01139602,0.00065888,0.08445708,0.00028251,0.00442196,0.00004674,-0.23351766,0.33928561,-0.00228643,-0.00443667,0.00060609,-0.04086943,0.06034561,0.02900566,0.01561141,0.01923154,0.01637741,0.01409503,-0.10210837,-0.07347681,14.69999981,0.52359879,0.00000000,0.00000000,5.00000000,0.00290700,0.00000000,1.00000000,100.00000000,30.00000000,354417344.00000000,0.00000000,0.00000000,119.00000000,0.99472255,0.99570268,1.05089951,0.99415308,0.99420863,0.99395269,0.99564511,0.99458879,0.99139231,-0.00016951,-0.00265318,1.50000000,0.42024183,-0.61573160,13.10804749,0.99959654,0.02346436,0.01600170,0.00037562,0.00021514,-0.00024178,0.00151736,-0.07996049,-0.08993837,0.00024723,21177228.00000000,-0.00000000,-3146434217177513984.00000000,4267.56494141,-3211728715192991744.00000000,0.00000000,-0.00000000,0.00000000,75.03138733,-2594362831801417728.00000000,17729961695711069818766217105637376.00000000,0.00000000
0.08853849,0.25843668,9.80144978,-0.00957803,0.00000000,-0.04256901,0.24694824,0.06640625,-0.48638916,0.00000000,-0.00000000,0.31000000,0.01100000,-0.00500000,-0.00100000,-0.99639630,-0.01188660,0.00025215,0.08398245,0.00006905,0.00473407,0.00003734,-0.23253413,0.33998799,-0.01024496,-0.00443667,0.00060609,-0.04086943,0.06034561,0.02900566,0.01561141,0.01923154,0.01637741,0.01409503,-0.20079085,-0.14369054,14.69999981,0.52359879,0.00000000,0.00000000,5.00000000,0.00382500,0.00000000,1.00000000,100.00000000,30.00000000,354417344.00000000,0.00000000,0.00000000,119.00000000,0.98687577,0.98928761,1.12660551,0.98545796,0.98559612,0.98497528,0.98916894,0.98654437,0.97859436,-0.00004143,-0.00284044,1.50000000,0.41876957,-0.61740655,13.12638855,0.99959707,0.02349530,0.01592336,0.00037427,0.00028270,-0.00031545,0.00234920,-0.07995113,-0.08992176,0.00032445,21177228.00000000,-0.00000000,-3146434217177513984.00000000,4267.56494141,-3211728715192991744.00000000,0.00000000,-0.00000000,0.00000000,75.03138733,-2594362831801417728.00000000,17729961695711069818766217105637376.00000000,0.00000000
0.08135969,0.25604373,9.80623627,-0.01064225,0.00000000,-0.04150478,0.24694824,0.06640625,-0.48638916,0.00000000,-0.00000000,0.31000000,0.01100000,-0.00500000,-0.00100000,-0.99641418,-0.01214297,0.00003959,0.08373439,-0.00004372,0.00489948,0.00003033,-0.23201981,0.34035492,-0.01440443,-0.00443667,0.00060609,-0.04086943,0.06034561,0.02900566,0.01561141,0.01923154,0.01637741,0.01409503,-0.29616737,-0.21084204,14.69999981,0.52359879,0.00000000,0.00000000,5.00000000,0.00431100,0.00000000,1.00000000,100.00000000,30.00000000,354417344.00000000,0.00000000,0.00000000,119.00000000,0.97535974,0.97988188,1.23766327,0.97270614,0.97296661,0.97181481,0.97966897,0.97474980,0.95982659,0.00002623,-0.00293969,1.50000000,0.41800144,-0.61828488,13.13598061,0.99959731,0.02351153,0.01588255,0.00037357,0.00031860,-0.00035459,0.00279081,-0.07994629,-0.08991309,0.00036522,21177228.00000000,-0.00000000,-3146434217177513984.00000000,4267.56494141,-3211728715192991744.00000000,0.00000000,-0.00000000,0.00000000,75.03138733,-2594362831801417728.00000000,17729961695711069818766217105637376.00000000,0.00000000
0.06939503,0.25843668,9.80384254,-0.01064225,-0.00106423,-0.04256901,0.24694824,0.06640625,-0.48638916,0.00000000,-0.00000000,0.31000000,0.01100000,-0.00500000,-0.00100000,-0.99643147,-0.01239433,-0.00016885,0.08349112,-0.00015600,0.00506473,0.00002137,-0.23151505,0.34071445,-0.01848321,-0.00443667,0.00060609,-0.04086943,0.06034561,0.02900566,0.01561141,0.01923154,0.01637741,0.01409503,-0.38834384,-0.27511707,14.69999981,0.52359879,0.00000000,0.00000000,5.00000000,0.00479600,0.00000000,1.00000000,100.00000000,30.00000000,354417344.00000000,0.00000000,0.00000000,119.00000000,0.95987481,0.96727407,1.38668454,0.95559740,0.95602375,0.95416027,0.96692199,0.95892936,0.93464935,0.00009360,-0.00303884,1.50000000,0.41725001,-0.61914963,13.14539623,0.99959761,0.02352754,0.01584264,0.00037289,0.00035448,-0.00039374,0.00323268,-0.07994157,-0.08990455,0.00040578,21177228.00000000,-0.00000000,-3146434217177513984.00000000,4267.56494141,-3211728715192991744.00000000,0.00000000,-0.00000000,0.00000000,75.03138733,-2594362831801417728.00000000,17729961695711069818766217105637376.00000000,0.00000000
0.07657383,0.25843668,9.80623627,-0.00957803,0.00000000,-0.04256901,0.24694824,0.06640625,-0.48638916,0.00000000,-0.00000000,0.31000000,0.01100000,-0.00500000,-0.00100000,-0.99644870,-0.01264724,-0.00037859,0.08324633,-0.00027127,0.00523493,0.00001010,-0.23100653,0.34107584,-0.02258780,-0.00443667,0.00060609,-0.04086943,0.06034561,0.02900566,0.01561141,0.01923154,0.01637741,0.01409503,-0.47742257,-0.33668897,14.69999981,0.52359879,0.00000000,0.00000000,5.00000000,0.00529500,0.00000000,1.00000000,100.00000000,30.00000000,354417344.00000000,0.00000000,0.00000000,119.00000000,0.94064468,0.95166451,1.57129622,0.93440485,0.93503654,0.93229401,0.95113122,0.93933553,0.90346444,0.00016276,-0.00314096,1.50000000,0.41649619,-0.62002432,13.15488243,0.99959785,0.02354377,0.01580261,0.00037220,0.00039146,-0.00043410,0.00368855,-0.07993683,-0.08989590,0.00044740,21177228.00000000,-0.00000000,-3146434217177513984.00000000,4267.56494141,-3211728715192991744.00000000,0.00000000,-0.00000000,0.00000000,75.03138733,-2594362831801417728.00000000,17729961695711069818766217105637376.00000000,0.00000000
0.09811021,0.24647202,9.81820011,-0.00957803,0.00319268,-0.04150478,0.24945068,0.07128906,-0.48468018,0.00000000,-0.00000000,0.31000000,0.01100000,-0.00500000,-0.00100000,-0.99649149,-0.01328509,-0.00090764,0.08262882,-0.00056807,0.00567677,-0.00003246,-0.22972125,0.34198499,-0.03294183,-0.00443667,0.00060609,-0.04086943,0.06034561,0.02900566,0.01561141,0.01923154,0.01637741,0.01409503,-0.56347072,-0.39571139,14.69999981,0.52359879,0.00000000,0.00000000,5.00000000,0.00658700,0.00000000,1.00000000,100.00000000,30.00000000,354417344.00000000,0.00000000,0.00000000,119.00000000,0.91854256,0.93372977,1.78340709,0.91006267,0.91093326,0.90717816,0.93299323,0.91683644,0.86764526,0.00034084,-0.00340606,1.50000000,0.41459897,-0.62224281,13.17884922,0.99959844,0.02358502,0.01570202,0.00037048,0.00048722,-0.00053895,0.00487688,-0.07992530,-0.08987433,0.00055434,21177228.00000000,-0.00000000,-3146434217177513984.00000000,4267.56494141,-3211728715192991744.00000000,0.00000000,-0.00000000,0.00000000,75.03138733,-2594362831801417728.00000000,17729961695711069818766217105637376.00000000,0.00000000
0.09093142,0.24886495,9.81580734,-0.01064225,0.00319268,-0.04895436,0.24945068,0.07128906,-0.48468018,0.00000000,-0.00000000,0.31000000,0.01100000,-0.00500000,-0.00100000,-0.99651372,-0.01362448,-0.00118920,0.08230015,-0.00073023,0.00591924,-0.00005969,-0.22903569,0.34246740,-0.03845233,-0.00443667,0.00060609,-0.04086943,0.06034561,0.02900566,0.01561141,0.01923154,0.01637741,0.01409503,-0.64661157,-0.45235282,14.69999981,0.52359879,0.00000000,0.00000000,5.00000000,0.00729500,0.00000000,1.00000000,100.00000000,30.00000000,354417344.00000000,0.00000000,0.00000000,119.00000000,0.89448082,0.91416067,2.01464272,0.88353461,0.88467711,0.87980026,0.91323191,0.89233464,0.82861477,0.00043814,-0.00355154,1.50000000,0.41359285,-0.62343079,13.19162560,0.99959880,0.02360714,0.01564875,0.00036957,0.00053995,-0.00059668,0.00553042,-0.07991920,-0.08986276,0.00061272,21177228.00000000,-0.00000000,-3146434217177513984.00000000,4267.56494141,-3211728715192991744.00000000,0.00000000,-0.00000000,0.00000000,75.03138733,-2594362831801417728.00000000,17729961695711069818766217105637376.00000000,0.00000000
0.09093142,0.24168615,9.82537937,-0.00957803,0.00212845,-0.04256901,0.24945068,0.07128906,-0.48468018,0.00000000,-0.00000000,0.31000000,0.01100000,-0.00500000,-0.00100000,-0.99654382,-0.01408859,-0.00157431,0.08185062,-0.00095832,0.00626236,-0.00010568,-0.22809511,0.34312424,-0.04598958,-0.00443667,0.00060609,-0.04086943,0.06034561,0.02900566,0.01561141,0.01923154,0.01637741,0.01409503,-0.72692502,-0.50675786,14.69999981,0.52359879,0.00000000,0.00000000,5.00000000,0.00829500,0.00000000,1.00000000,100.00000000,30.00000000,354417344.00000000,0.00000000,0.00000000,119.00000000,0.86886382,0.89327461,2.26111722,0.85526663,0.85671145,0.85061222,0.89218289,0.86624640,0.78703183,0.00057499,-0.00375742,1.50000000,0.41222075,-0.62506545,13.20913506,0.99959922,0.02363764,0.01557615,0.00036833,0.00061456,-0.00067848,0.00645801,-0.07991100,-0.08984686,0.00069472,21177228.00000000,-0.00000000,-3146434217177513984.00000000,4267.56494141,-3211728715192991744.00000000,0.00000000,-0.00000000,0.00000000,75.03138733,-2594362831801417728.00000000,17729961695711069818766217105637376.00000000,0.00000000
0.07418089,0.25125787,9.81102180,-0.00851380,0.00000000,-0.04469746,0.25274658,0.06872559,-0.48553467,0.00000000,-0.00000000,0.31000000,0.01100000,-0.00500000,-0.00100000,-0.99658042,-0.01466683,-0.00205426,0.08129039,-0.00125128,0.00670639,-0.00017718,-0.22691803,0.34393743,-0.05538296,-0.00443667,0.00060609,-0.04086943,0.06034561,0.02900566,0.01561141,0.01923154,0.01637741,0.01409503,-0.80448902,-0.55905855,14.69999981,0.52359879,0.00000000,0.00000000,5.00000000,0.00958600,0.00000000,1.00000000,100.00000000,30.00000000,354417344.00000000,0.00000000,0.00000000,119.00000000,0.84167057,0.87106037,2.52288961,0.82525432,0.82702357,0.81961113,0.86984503,0.83856046,0.74288356,0.00075077,-0.00402383,1.50000000,0.41051492,-0.62711483,13.23100567,0.99959970,0.02367590,0.01548605,0.00036679,0.00071110,-0.00078456,0.00766281,-0.07990109,-0.08982710,0.00079987,21177228.00000000,-0.00000000,-3146434217177513984.00000000,4267.56494141,-3211728715192991744.00000000,0.00000000,-0.00000000,0.00000000,75.03138733,-2594362831801417728.00000000,17729961695711069818766217105637376.00000000,0.00000000
0.09571729,0.24886495,9.80384254,-0.00638535,-0.00106423,-0.03831211,0.25274658,0.06872559,-0.48553467,0.00000000,-0.00000000,0.31000000,0.01100000,-0.00500000,-0.00100000,-0.99659950,-0.01497311,-0.00230855,0.08099358,-0.00141217,0.00695123,-0.00022009,-0.22629167,0.34436533,-0.06035979,-0.00443667,0.00060609,-0.04086943,0.06034561,0.02900566,0.01561141,0.01923154,0.01637741,0.01409503,-0.87942749,-0.60939217,14.69999981,0.52359879,0.00000000,0.00000000,5.00000000,0.01029700,0.00000000,1.00000000,100.00000000,30.00000000,354417344.00000000,0.00000000,0.00000000,119.00000000,0.81292289,0.84753436,2.79979706,0.79351825,0.79562217,0.78682154,0.84623724,0.80928552,0.69619012,0.00084730,-0.00417074,1.50000000,0.40961465,-0.62820816,13.24262047,0.99959993,0.02369637,0.01543853,0.00036598,0.00076451,-0.00084323,0.00832846,-0.07989583,-0.08981643,0.00085756,21177228.00000000,-0.00000000,-3146434217177513984.00000000,4267.56494141,-3211728715192991744.00000000,0.00000000,-0.00000000,0.00000000,75.03138733,-2594362831801417728.00000000,17729961695711069818766217105637376.00000000,0.00000000
0.08614556,0.24407908,9.81341457,-0.00851380,0.00212845,-0.04256901,0.25274658,0.06872559,-0.48553467,0.00000000,-0.00000000,0.31000000,0.01100000,-0.00500000,-0.00100000,-0.99662477,-0.01538561,-0.00265112,0.08059373,-0.00163739,0.00729582,-0.00028709,-0.22544308,0.34493643,-0.06706459,-0.00443667,0.00060609,-0.04086943,0.06034561,0.02900566,0.01561141,0.01923154,0.01637741,0.01409503,-0.95181602,-0.65786934,14.69999981,0.52359879,0.00000000,0.00000000,5.00000000,0.01129600,0.00000000,1.00000000,100.00000000,30.00000000,354417344.00000000,0.00000000,0.00000000,119.00000000,0.78296375,0.82295942,3.08870292,0.76041824,0.76286042,0.75261927,0.82162762,0.77874899,0.64747685,0.00098243,-0.00437749,1.50000000,0.40840557,-0.62969095,13.25831032,0.99960023,0.02372416,0.01537474,0.00036490,0.00083966,-0.00092592,0.00926776,-0.07988881,-0.08980186,0.00093824,21177228.00000000,-0.00000000,-3146434217177513984.00000000,4267.56494141,-3211728715192991744.00000000,0.00000000,-0.00000000,0.00000000,75.03138733,-2594362831801417728.00000000,17729961695711069818766217105637376.00000000,0.00000000
0.08614556,0.26322255,9.80862904,-0.00957803,-0.00106423,-0.04256901,0.25274658,0.06835938,-0.48510742,0.00000000,-0.00000000,0.31000000,0.01100000,-0.00500000,-0.00100000,-0.99665534,-0.01589505,-0.00307435,0.08009978,-0.00192707,0.00774203,-0.00038436,-0.22438711,0.34563321,-0.07534806,-0.00443667,0.00060609,-0.04086943,0.06034561,0.02900566,0.01561141,0.01923154,0.01637741,0.01409503,-1.02172506,-0.70459223,14.69999981,0.52359879,0.00000000,0.00000000,5.00000000,0.01258700,0.00000000,1.00000000,100.00000000,30.00000000,354417344.00000000,0.00000000,0.00000000,119.00000000,0.75229281,0.79778183,3.38457084,0.72652817,0.72931004,0.71760005,0.79644459,0.74748111,0.59759420,0.00115624,-0.00464522,1.50000000,0.40691501,-0.63153434,13.27775383,0.99960065,0.02375874,0.01529619,0.00036356,0.00093698,-0.00103318,0.01048802,-0.07988034,-0.08978368,0.00104185,21177228.00000000,-0.00000000,-3146434217177513984.00000000,4267.56494141,-3211728715192991744.00000000,0.00000000,-0.00000000,0.00000000,75.03138733,-2594362831801417728.00000000,17729961695711069818766217105637376.00000000,0.00000000
0.08375262,0.24647202,9.80862904,-0.01064225,0.00106423,-0.04789013,0.25274658,0.06835938,-0.48510742,0.00000000,-0.00000000,0.31000000,0.01100000,-0.00500000,-0.00100000,-0.99667114,-0.01616136,-0.00329566,0.07984150,-0.00208554,0.00798700,-0.00044078,-0.22383095,0.34599307,-0.07967975,-0.00443667,0.00060609,-0.04086943,0.06034561,0.02900566,0.01561141,0.01923154,0.01637741,0.01409503,-1.08927000,-0.74967206,14.69999981,0.52359879,0.00000000,0.00000000,5.00000000,0.01329500,0.00000000,1.00000000,100.00000000,30.00000000,354417344.00000000,0.00000000,0.00000000,119.00000000,0.72129333,0.77236885,3.68340802,0.69229925,0.69541746,0.68222708,0.77102655,0.71589804,0.54721248,0.00125133,-0.00479220,1.50000000,0.40613863,-0.63250571,13.28795528,0.99960083,0.02377700,0.01525528,0.00036287,0.00099055,-0.00109224,0.01115907,-0.07987586,-0.08977389,0.00109849,21177228.00000000,-0.00000000,-3146434217177513984.00000000,4267.56494141,-3211728715192991744.00000000,0.00000000,-0.00000000,0.00000000,75.03138733,-2594362831801417728.00000000,17729961695711069818766217105637376.00000000,0.00000000
0.08853849,0.23929322,9.79905701,-0.00744958,0.00319268,-0.04576168,0.25274658,0.06835938,-0.48510742,0.00000000,-0.00000000,0.31000000,0.01100000,-0.00500000,-0.00100000,-0.99669188,-0.01651858,-0.00359264,0.07949495,-0.00230840,0.00833312,-0.00052618,-0.22307807,0.34646830,-0.08549250,-0.00443667,0.00060609,-0.04086943,0.06034561,0.02900566,0.01561141,0.01923154,0.01637741,0.01409503,-1.15451396,-0.79319626,14.69999981,0.52359879,0.00000000,0.00000000,5.00000000,0.01429400,0.00000000,1.00000000,100.00000000,30.00000000,354417344.00000000,0.00000000,0.00000000,119.00000000,0.69012630,0.74681652,3.98374820,0.65789747,0.66135114,0.64666361,0.74549484,0.68415076,0.49657452,0.00138504,-0.00499987,1.50000000,0.40509981,-0.63381845,13.30169296,0.99960107,0.02380172,0.01520054,0.00036194,0.00106625,-0.00117578,0.01210942,-0.07986987,-0.08976045,0.00117807,21177228.00000000,-0.00000000,-3146434217177513984.00000000,4267.56494141,-3211728715192991744.00000000,0.00000000,-0.00000000,0.00000000,75.03138733,-2594362831801417728.00000000,17729961695711069818766217105637376.00000000,0.00000000
0.09571729,0.23690028,9.80384254,-0.00851380,0.00000000,-0.04682591,0.25207520,0.06719971,-0.48498535,0.00000000,-0.00000000,0.31000000,0.01100000,-0.00500000,-0.00100000,-0.99671704,-0.01695680,-0.00395712,0.07906972,-0.00259563,0.00878184,-0.00064595,-0.22214401,0.34703952,-0.09262674,-0.00443667,0.00060609,-0.04086943,0.06034561,0.02900566,0.01561141,0.01923154,0.01637741,0.01409503,-1.21751916,-0.83524841,14.69999981,0.52359879,0.00000000,0.00000000,5.00000000,0.01558700,0.00000000,1.00000000,100.00000000,30.00000000,354417344.00000000,0.00000000,0.00000000,119.00000000,0.65883571,0.72109669,4.28547668,0.62333727,0.62712914,0.61091745,0.71985489,0.65225065,0.44569871,0.00155738,-0.00526910,1.50000000,0.40382689,-0.63543981,13.31862450,0.99960136,0.02383224,0.01513350,0.00036081,0.00116440,-0.00128428,0.01334498,-0.07986262,-0.08974362,0.00128052,21177228.00000000,-0.00000000,-3146434217177513984.00000000,4267.56494141,-3211728715192991744.00000000,0.00000000,-0.00000000,0.00000000,75.03138733,-2594362831801417728.00000000,17729961695711069818766217105637376.00000000,0.00000000
0.10768194,0.24168615,9.80144978,-0.00957803,-0.00106423,-0.04150478,0.25207520,0.06719971,-0.48498535,0.00000000,-0.00000000,0.31000000,0.01100000,-0.00500000,-0.00100000,-0.99672985,-0.01718321,-0.00414552,0.07884997,-0.00275234,0.00902740,-0.00071404,-0.22165594,0.34732863,-0.09631450,-0.00443667,0.00060609,-0.04086943,0.06034561,0.02900566,0.01561141,0.01923154,0.01637741,0.01409503,-1.27839410,-0.87592238,14.69999981,0.52359879,0.00000000,0.00000000,5.00000000,0.01629400,0.00000000,1.00000000,100.00000000,30.00000000,354417344.00000000,0.00000000,0.00000000,119.00000000,0.62754709,0.69527715,4.58775425,0.58871204,0.59284264,0.57509077,0.69417477,0.62028694,0.39472932,0.00165140,-0.00541644,1.50000000,0.40317142,-0.63628495,13.32741451,0.99960148,0.02384819,0.01509897,0.00036023,0.00121824,-0.00134380,0.01402213,-0.07985879,-0.08973458,0.00133639,21177228.00000000,-0.00000000,-3146434217177513984.00000000,4267.56494141,-3211728715192991744.00000000,0.00000000,-0.00000000,0.00000000,75.03138733,-2594362831801417728.00000000,17729961695711069818766217105637376.00000000,0.00000000
0.08375262,0.23929322,9.80862904,-0.00957803,-0.00106423,-0.03937633,0.25207520,0.06719971,-0.48498535,0.00000000,-0.00000000,0.31000000,0.01100000,-0.00500000,-0.00100000,-0.99674666,-0.01748516,-0.00439691,0.07855681,-0.00297356,0.00937545,-0.00081538,-0.22099604,0.34770417,-0.10123566,-0.00443667,0.00060609,-0.04086943,0.06034561,0.02900566,0.01561141,0.01923154,0.01637741,0.01409503,-1.33719242,-0.91528404,14.69999981,0.52359879,0.00000000,0.00000000,5.00000000,0.01729500,0.00000000,1.00000000,100.00000000,30.00000000,354417344.00000000,0.00000000,0.00000000,119.00000000,0.59648871,0.66955239,4.88831520,0.55427903,0.55874431,0.53946471,0.66864610,0.58849949,0.34404999,0.00178413,-0.00562527,1.50000000,0.40229884,-0.63742125,13.33920288,0.99960166,0.02386964,0.01505297,0.00035945,0.00129455,-0.00142826,0.01498383,-0.07985366,-0.08972207,0.00141519,21177228.00000000,-0.00000000,-3146434217177513984.00000000,4267.56494141,-3211728715192991744.00000000,0.00000000,-0.00000000,0.00000000,75.03138733,-2594362831801417728.00000000,17729961695711069818766217105637376.00000000,0.00000000
0.07178796,0.23929322,9.81102180,-0.00744958,0.00106423,-0.04363323,0.25335693,0.06860352,-0.48504639,0.00000000,-0.00000000,0.31000000,0.01100000,-0.00500000,-0.00100000,-0.99676669,-0.01785094,-0.00470163,0.07820156,-0.00325782,0.00982491,-0.00095378,-0.22018357,0.34814408,-0.10720111,-0.00443667,0.00060609,-0.04086943,0.06034561,0.02900566,0.01561141,0.01923154,0.01637741,0.01409503,-1.39396906,-0.95339453,14.69999981,0.52359879,0.00000000,0.00000000,5.00000000,0.01858600,0.00000000,1.00000000,100.00000000,30.00000000,354417344.00000000,0.00000000,0.00000000,119.00000000,0.56586659,0.64414108,5.18454933,0.52034330,0.52513188,0.50435811,0.64349288,0.55716556,0.29410151,0.00195469,-0.00589494,1.50000000,0.40124196,-0.63880777,13.35357094,0.99960190,0.02389580,0.01499726,0.00035851,0.00139312,-0.00153750,0.01622877,-0.07984746,-0.08970642,0.00151637,21177228.00000000,-0.00000000,-3146434217177513984.00000000,4267.56494141,-3211728715192991744.00000000,0.00000000,-0.00000000,0.00000000,75.03138733,-2594362831801417728.00000000,17729961695711069818766217105637376.00000000,0.00000000
0.07178796,0.24168615,9.80862904,-0.00638535,0.00000000,-0.03937633,0.25335693,0.06860352,-0.48504639,0.00000000,-0.00000000,0.31000000,0.01100000,-0.00500000,-0.00100000,-0.99677688,-0.01803911,-0.00485847,0.07801876,-0.00341362,0.01007190,-0.00103196,-0.21975884,0.34836265,-0.11027195,-0.00443667,0.00060609,-0.04086943,0.06034561,0.02900566,0.01561141,0.01923154,0.01637741,0.01409503,-1.44882858,-0.99032843,14.69999981,0.52359879,0.00000000,0.00000000,5.00000000,0.01929500,0.00000000,1.00000000,100.00000000,30.00000000,354417344.00000000,0.00000000,0.00000000,119.00000000,0.53580457,0.61918849,5.47485399,0.48709664,0.49218869,0.46996522,0.61885405,0.52645701,0.24515423,0.00204817,-0.00604314,1.50000000,0.40070000,-0.63952804,13.36101246,0.99960202,0.02390941,0.01496866,0.00035803,0.00144739,-0.00159766,0.01691378,-0.07984418,-0.08969796,0.00157181,21177228.00000000,-0.00000000,-3146434217177513984.00000000,4267.56494141,-3211728715192991744.00000000,0.00000000,-0.00000000,0.00000000,75.03138733,-2594362831801417728.00000000,17729961695711069818766217105637376.00000000,0.00000000
0.07896676,0.23450735,9.80623627,-0.00744958,0.00000000,-0.04044056,0.25335693,0.06860352,-0.48504639,0.00000000,-0.00000000,0.31000000,0.01100000,-0.00500000,-0.00100000,-0.99679011,-0.01828695,-0.00506520,0.07777789,-0.00363281,0.01042053,-0.00114628,-0.21918876,0.34863818,-0.11431997,-0.00443667,0.00060609,-0.04086943,0.06034561,0.02900566,0.01561141,0.01923154,0.01637741,0.01409503,-1.50182498,-1.02613640,14.69999981,0.52359879,0.00000000,0.00000000,5.00000000,0.02029500,0.00000000,1.00000000,100.00000000,30.00000000,354417344.00000000,0.00000000,0.00000000,119.00000000,0.50634938,0.59474099,5.75882769,0.45458582,0.45995897,0.43634197,0.59476388,0.49641794,0.19727567,0.00217969,-0.00625232,1.50000000,0.39998719,-0.64048558,13.37088680,0.99960214,0.02392750,0.01493099,0.00035740,0.00152401,-0.00168268,0.01788237,-0.07983977,-0.08968627,0.00164976,21177228.00000000,-0.00000000,-3146434217177513984.00000000,4267.56494141,-3211728715192991744.00000000,0.00000000,-0.00000000,0.00000000,75.03138733,-2594362831801417728.00000000,17729961695711069818766217105637376.00000000,0.00000000
0.08853849,0.22732855,9.81102180,-0.00851380,0.00000000,-0.04576168,0.25341797,0.06842041,-0.48504639,0.00000000,-0.00000000,0.31000000,0.01100000,-0.00500000,-0.00100000,-0.99680591,-0.01858503,-0.00531399,0.07748810,-0.00391510,0.01087138,-0.00130028,-0.21848799,0.34895149,-0.11919240,-0.00443667,0.00060609,-0.04086943,0.06034561,0.02900566,0.01561141,0.01923154,0.01637741,0.01409503,-1.55300891,-1.06086576,14.69999981,0.52359879,0.00000000,0.00000000,5.00000000,0.02158700,0.00000000,1.00000000,100.00000000,30.00000000,354417344.00000000,0.00000000,0.00000000,119.00000000,0.47752714,0.57079566,6.03637123,0.42281786,0.42845637,0.40349320,0.57123041,0.46706161,0.15048422,0.00234906,-0.00652283,1.50000000,0.39912981,-0.64164656,13.38286114,0.99960232,0.02394941,0.01488564,0.00035664,0.00162313,-0.00179277,0.01913757,-0.07983442,-0.08967155,0.00175010,21177228.00000000,-0.00000000,-3146434217177513984.00000000,4267.56494141,-3211728715192991744.00000000,0.00000000,-0.00000000,0.00000000,75.03138733,-2594362831801417728.00000000,17729961695711069818766217105637376.00000000,0.00000000
0.10528901,0.22732855,9.80862904,-0.00744958,-0.00106423,-0.04044056,0.25341797,0.06842041,-0.48504639,0.00000000,-0.00000000,0.31000000,0.01100000,-0.00500000,-0.00100000,-0.99681389,-0.01873675,-0.00544072,0.07734052,-0.00406975,0.01111889,-0.00138654,-0.21812324,0.34910151,-0.12167497,-0.00443667,0.00060609,-0.04086943,0.06034561,0.02900566,0.01561141,0.01923154,0.01637741,0.01409503,-1.60247350,-1.09457791,14.69999981,0.52359879,0.00000000,0.00000000,5.00000000,0.02229600,0.00000000,1.00000000,100.00000000,30.00000000,354417344.00000000,0.00000000,0.00000000,119.00000000,0.44944081,0.54739004,6.30681467,0.39186898,0.39776030,0.37148571,0.54831100,0.43846148,0.10489459,0.00244185,-0.00667134,1.50000000,0.39869478,-0.64224446,13.38901329,0.99960238,0.02396070,0.01486258,0.00035626,0.00167763,-0.00185332,0.01982743,-0.07983158,-0.08966359,0.00180506,21177228.00000000,-0.00000000,-3146434217177513984.00000000,4267.56494141,-3211728715192991744.00000000,0.00000000,-0.00000000,0.00000000,75.03138733,-2594362831801417728.00000000,17729961695711069818766217105637376.00000000,0.00000000
0.08853849,0.24168615,9.81102180,-0.00744958,0.00000000,-0.04150478,0.25341797,0.06842041,-0.48504639,0.00000000,-0.00000000,0.31000000,0.01100000,-0.00500000,-0.00100000,-0.99682409,-0.01893418,-0.00560577,0.07714839,-0.00428695,0.01146747,-0.00151120,-0.21763621,0.34928191,-0.12490860,-0.00443667,0.00060609,-0.04086943,0.06034561,0.02900566,0.01561141,0.01923154,0.01637741,0.01409503,-1.65026581,-1.12731290,14.69999981,0.52359879,0.00000000,0.00000000,5.00000000,0.02329400,0.00000000,1.00000000,100.00000000,30.00000000,354417344.00000000,0.00000000,0.00000000,119.00000000,0.42224705,0.52463776,6.56893015,0.36188176,0.36800876,0.34046710,0.52610856,0.41074610,0.06071228,0.00257217,-0.00688048,1.50000000,0.39812946,-0.64303100,13.39709949,0.99960250,0.02397555,0.01483254,0.00035576,0.00175441,-0.00193868,0.02080043,-0.07982776,-0.08965257,0.00188223,21177228.00000000,-0.00000000,-3146434217177513984.00000000,4267.56494141,-3211728715192991744.00000000,0.00000000,-0.00000000,0.00000000,75.03138733,-2594362831801417728.00000000,17729961695711069818766217105637376.00000000,0.00000000
0.07896676,0.25365081,9.82059383,-0.01064225,0.00000000,-0.04789013,0.25335693,0.06811523,-0.48577881,0.00000000,-0.00000000,0.31000000,0.01100000,-0.00500000,-0.00100000,-0.99683619,-0.01916979,-0.00580292,0.07691899,-0.00456758,0.01191935,-0.00167771,-0.21703739,0.34947601,-0.12877223,-0.00443667,0.00060609,-0.04086943,0.06034561,0.02900566,0.01561141,0.01923154,0.01637741,0.01409503,-1.69643021,-1.15910721,14.69999981,0.52359879,0.00000000,0.00000000,5.00000000,0.02458700,0.00000000,1.00000000,100.00000000,30.00000000,354417344.00000000,0.00000000,0.00000000,119.00000000,0.39604723,0.50267512,6.82165241,0.33297530,0.33932269,0.31055999,0.50471270,0.38402641,0.01811662,0.00274055,-0.00715161,1.50000000,0.39745426,-0.64397919,13.40686321,0.99960256,0.02399340,0.01479659,0.00035516,0.00185397,-0.00204948,0.02206403,-0.07982308,-0.08963860,0.00198192,21177228.00000000,-0.00000000,-3146434217177513984.00000000,4267.56494141,-3211728715192991744.00000000,0.00000000,-0.00000000,0.00000000,75.03138733,-2594362831801417728.00000000,17729961695711069818766217105637376.00000000,0.00000000
0.10289608,0.25365081,9.81102180,-0.00638535,0.00319268,-0.04044056,0.25335693,0.06811523,-0.48577881,0.00000000,-0.00000000,0.31000000,0.01100000,-0.00500000,-0.00100000,-0.99684227,-0.01928835,-0.00590224,0.07680348,-0.00472124,0.01216719,-0.00177039,-0.21672662,0.34956247,-0.13071905,-0.00443667,0.00060609,-0.04086943,0.06034561,0.02900566,0.01561141,0.01923154,0.01637741,0.01409503,-1.74104869,-1.19001138,14.69999981,0.52359879,0.00000000,0.00000000,5.00000000,0.02529600,0.00000000,1.00000000,100.00000000,30.00000000,354417344.00000000,0.00000000,0.00000000,119.00000000,0.37090003,0.48158154,7.06456757,0.30519378,0.31175306,0.28181013,0.48415768,0.35834506,-0.02282278,0.00283274,-0.00730031,1.50000000,0.39711550,-0.64446336,13.41184044,0.99960262,0.02400252,0.01477849,0.00035486,0.00190865,-0.00211035,0.02275774,-0.07982060,-0.08963102,0.00203650,21177228.00000000,-0.00000000,-3146434217177513984.00000000,4267.56494141,-3211728715192991744.00000000,0.00000000,-0.00000000,0.00000000,75.03138733,-2594362831801417728.00000000,17729961695711069818766217105637376.00000000,0.00000000
0.08614556,0.24407908,9.80862904,-0.00532113,-0.00106423,-0.03937633,0.25335693,0.06811523,-0.48577881,0.00000000,-0.00000000,0.31000000,0.01100000,-0.00500000,-0.00100000,-0.99685001,-0.01944120,-0.00603042,0.07665449,-0.00493755,0.01251684,-0.00190362,-0.21631150,0.34965673,-0.13323240,-0.00443667,0.00060609,-0.04086943,0.06034561,0.02900566,0.01561141,0.01923154,0.01637741,0.01409503,-1.78416336,-1.22005785,14.69999981,0.52359879,0.00000000,0.00000000,5.00000000,0.02629600,0.00000000,1.00000000,100.00000000,30.00000000,354417344.00000000,0.00000000,0.00000000,119.00000000,0.34682038,0.46136397,7.29773045,0.27853641,0.28529465,0.25422451,0.46443680,0.33369535,-0.06211736,0.00296253,-0.00751011,1.50000000,0.39667907,-0.64509660,13.41834927,0.99960268,0.02401443,0.01475508,0.00035448,0.00198582,-0.00219630,0.02373768,-0.07981722,-0.08962049,0.00211334,21177228.00000000,-0.00000000,-3146434217177513984.00000000,4267.56494141,-3211728715192991744.00000000,0.00000000,-0.00000000,0.00000000,75.03138733,-2594362831801417728.00000000,17729961695711069818766217105637376.00000000,0.00000000
0.08375262,0.23929322,9.80623627,-0.00851380,-0.00106423,-0.04150478,0.25292969,0.06799316,-0.48492432,0.00000000,-0.00000000,0.31000000,0.01100000,-0.00500000,-0.00100000,-0.99685895,-0.01962059,-0.00618107,0.07647949,-0.00521594,0.01296801,-0.00207930,-0.21580409,0.34974325,-0.13618724,-0.00443667,0.00060609,-0.04086943,0.06034561,0.02900566,0.01561141,0.01923154,0.01637741,0.01409503,-1.82581699,-1.24927485,14.69999981,0.52359879,0.00000000,0.00000000,5.00000000,0.02758600,0.00000000,1.00000000,100.00000000,30.00000000,354417344.00000000,0.00000000,0.00000000,119.00000000,0.32375380,0.44201133,7.52116299,0.25300124,0.25993940,0.22780392,0.44554597,0.31007484,-0.09977174,0.00312956,-0.00778081,1.50000000,0.39616600,-0.64585066,13.42611694,0.99960274,0.02402858,0.01472747,0.00035402,0.00208543,-0.00230733,0.02500409,-0.07981308,-0.08960714,0.00221223,21177228.00000000,-0.00000000,-3146434217177513984.00000000,4267.56494141,-3211728715192991744.00000000,0.00000000,-0.00000000,0.00000000,75.03138733,-2594362831801417728.00000000,17729961695711069818766217105637376.00000000,0.00000000
0.09571729,0.24647202,9.80623627,-0.00638535,0.00000000,-0.04044056,0.25292969,0.06799316,-0.48492432,0.00000000,-0.00000000,0.31000000,0.01100000,-0.00500000,-0.00100000,-0.99686342,-0.01970973,-0.00625604,0.07639246,-0.00536854,0.01321565,-0.00217676,-0.21554089,0.34977314,-0.13765828,-0.00443667,0.00060609,-0.04086943,0.06034561,0.02900566,0.01561141,0.01923154,0.01637741,0.01409503,-1.86608529,-1.27770197,14.69999981,0.52359879,0.00000000,0.00000000,5.00000000,0.02829400,0.00000000,1.00000000,100.00000000,30.00000000,354417344.00000000,0.00000000,0.00000000,119.00000000,0.30170131,0.42354468,7.73457623,0.22861689,0.23571917,0.20257489,0.42750770,0.28751373,-0.13573676,0.00322112,-0.00792939,1.50000000,0.39591178,-0.64623290,13.43004799,0.99960279,0.02403576,0.01471370,0.00035380,0.00214017,-0.00236836,0.02569976,-0.07981086,-0.08959988,0.00226645,21177228.00000000,-0.00000000,-3146434217177513984.00000000,4267.56494141,-3211728715192991744.00000000,0.00000000,-0.00000000,0.00000000,75.03138733,-2594362831801417728.00000000,17729961695711069818766217105637376.00000000,0.00000000
0.07896676,0.26561546,9.78948498,-0.00957803,0.00000000,-0.03937633,0.25292969,0.06799316,-0.48492432,0.00000000,-0.00000000,0.31000000,0.01100000,-0.00500000,-0.00100000,-0.99686909,-0.01982323,-0.00635166,0.07628153,-0.00558394,0.01356579,-0.00231644,-0.21518895,0.34979126,-0.13953555,-0.00443667,0.00060609,-0.04086943,0.06034561,0.02900566,0.01561141,0.01923154,0.01637741,0.01409503,-1.90500569,-1.30536366,14.69999981,0.52359879,0.00000000,0.00000000,5.00000000,0.02929500,0.00000000,1.00000000,100.00000000,30.00000000,354417344.00000000,0.00000000,0.00000000,119.00000000,0.28072405,0.40602005,7.93751526,0.20543155,0.21268433,0.17859057,0.41035673,0.26605597,-0.16994077,0.00335037,-0.00813948,1.50000000,0.39558834,-0.64673001,13.43516350,0.99960279,0.02404508,0.01469608,0.00035351,0.00221759,-0.00245472,0.02668447,-0.07980783,-0.08958972,0.00234299,21177228.00000000,-0.00000000,-3146434217177513984.00000000,4267.56494141,-3211728715192991744.00000000,0.00000000,-0.00000000,0.00000000,75.03138733,-2594362831801417728.00000000,17729961695711069818766217105637376.00000000,0.00000000
0.08135969,0.24407908,9.75359154,-0.01064225,0.00000000,-0.03937633,0.25390625,0.06719971,-0.48626709,0.00000000,-0.00000000,0.31000000,0.01100000,-0.00500000,-0.00100000,-0.99687552,-0.01995442,-0.00646240,0.07615316,-0.00586141,0.01401771,-0.00249953,-0.21475890,0.34978452,-0.14171100,-0.00443667,0.00060609,-0.04086943,0.06034561,0.02900566,0.01561141,0.01923154,0.01637741,0.01409503,-1.94261265,-1.33228147,14.69999981,0.52359879,0.00000000,0.00000000,5.00000000,0.03058700,0.00000000,1.00000000,100.00000000,30.00000000,354417344.00000000,0.00000000,0.00000000,119.00000000,0.26083764,0.38945332,8.12968063,0.18346307,0.19085592,0.15588212,0.39411122,0.24572194,-0.20234960,0.00351685,-0.00841063,1.50000000,0.39521393,-0.64731753,13.44122124,0.99960285,0.02405606,0.01467555,0.00035318,0.00231757,-0.00256630,0.02795712,-0.07980406,-0.08957679,0.00244161,21177228.00000000,-0.00000000,-3146434217177513984.00000000,4267.56494141,-3211728715192991744.00000000,0.00000000,-0.00000000,0.00000000,75.03138733,-2594362831801417728.00000000,17729961695711069818766217105637376.00000000,0.00000000
0.09332436,0.18186285,9.76794910,-0.00957803,0.00000000,-0.03937633,0.25390625,0.06719971,-0.48626709,0.00000000,-0.00000000,0.31000000,0.01100000,-0.00500000,-0.00100000,-0.99687868,-0.02001846,-0.00651658,0.07609039,-0.00601352,0.01426570,-0.00260076,-0.21453595,0.34976581,-0.14277650,-0.00443667,0.00060609,-0.04086943,0.06034561,0.02900566,0.01561141,0.01923154,0.01637741,0.01409503,-1.97896755,-1.35848606,14.69999981,0.52359879,0.00000000,0.00000000,5.00000000,0.03129600,0.00000000,1.00000000,100.00000000,30.00000000,354417344.00000000,0.00000000,0.00000000,119.00000000,0.24203882,0.37371927,8.31112862,0.16268998,0.17021713,0.13443440,0.37876144,0.22649616,-0.23298705,0.00360811,-0.00855942,1.50000000,0.39503178,-0.64761299,13.44426441,0.99960285,0.02406159,0.01466546,0.00035301,0.00237248,-0.00262759,0.02865596,-0.07980204,-0.08956974,0.00249569,21177228.00000000,-0.00000000,-3146434217177513984.00000000,4267.56494141,-3211728715192991744.00000000,0.00000000,-0.00000000,0.00000000,75.03138733,-2594362831801417728.00000000,17729961695711069818766217105637376.00000000,0.00000000
0.10528901,0.11725368,9.84212971,-0.01277070,-0.00106423,-0.03937633,0.25390625,0.06719971,-0.48626709,0.00000000,-0.00000000,0.31000000,0.01100000,-0.00500000,-0.00100000,-0.99688262,-0.02009812,-0.00658418,0.07601215,-0.00622754,0.01461507,-0.00274472,-0.21423887,0.34971881,-0.14410739,-0.00443667,0.00060609,-0.04086943,0.06034561,0.02900566,0.01561141,0.01923154,0.01637741,0.01409503,-2.01409674,-1.38399434,14.69999981,0.52359879,0.00000000,0.00000000,5.00000000,0.03229500,0.00000000,1.00000000,100.00000000,30.00000000,354417344.00000000,0.00000000,0.00000000,119.00000000,0.22433321,0.35858071,8.48224831,0.14307499,0.15073638,0.11421016,0.36428359,0.20834848,-0.26190218,0.00373653,-0.00876904,1.50000000,0.39480558,-0.64799213,13.44817829,0.99960285,0.02406866,0.01465279,0.00035281,0.00244987,-0.00271401,0.02964144,-0.07979925,-0.08955989,0.00257182,21177228.00000000,-0.00000000,-3146434217177513984.00000000,4267.56494141,-3211728715192991744.00000000,0.00000000,-0.00000000,0.00000000,75.03138733,-2594362831801417728.00000000,17729961695711069818766217105637376.00000000,0.00000000
0.14118299,0.09332436,9.92588234,-0.01277070,0.00000000,-0.03299098,0.25286865,0.06768799,-0.48681641,0.00000000,-0.00000000,0.31000000,0.01100000,-0.00500000,-0.00100000,-0.99688709,-0.02018826,-0.00666095,0.07592337,-0.00650387,0.01506679,-0.00293286,-0.21387507,0.34963179,-0.14562091,-0.00443667,0.00060609,-0.04086943,0.06034561,0.02900566,0.01561141,0.01923154,0.01637741,0.01409503,-2.04802346,-1.40882373,14.69999981,0.52359879,0.00000000,0.00000000,5.00000000,0.03358700,0.00000000,1.00000000,100.00000000,30.00000000,354417344.00000000,0.00000000,0.00000000,119.00000000,0.20776309,0.34382564,8.64351368,0.12458864,0.13239375,0.09519078,0.35065964,0.19125944,-0.28912959,0.00390232,-0.00904008,1.50000000,0.39454925,-0.64843524,13.45278358,0.99960291,0.02407686,0.01463826,0.00035258,0.00254999,-0.00282587,0.03091712,-0.07979575,-0.08954727,0.00267015,21177228.00000000,-0.00000000,-3146434217177513984.00000000,4267.56494141,-3211728715192991744.00000000,0.00000000,-0.00000000,0.00000000,75.03138733,-2594362831801417728.00000000,17729961695711069818766217105637376.00000000,0.00000000
0.17707698,0.04546571,10.02159977,-0.01702760,-0.00212845,-0.03724788,0.25286865,0.06768799,-0.48681641,0.00000000,-0.00000000,0.31000000,0.01100000,-0.00500000,-0.00100000,-0.99688917,-0.02023109,-0.00669759,0.07588103,-0.00665537,0.01531464,-0.00303662,-0.21368621,0.34957048,-0.14634417,-0.00443667,0.00060609,-0.04086943,0.06034561,0.02900566,0.01561141,0.01923154,0.01637741,0.01409503,-2.08079433,-1.43300021,14.69999981,0.52359879,0.00000000,0.00000000,5.00000000,0.03429600,0.00000000,1.00000000,100.00000000,30.00000000,354417344.00000000,0.00000000,0.00000000,119.00000000,0.19245088,0.32927972,8.79533100,0.10721871,0.11518314,0.07737726,0.33788291,0.17522435,-0.31468070,0.00399322,-0.00918878,1.50000000,0.39442796,-0.64865392,13.45507526,0.99960291,0.02408088,0.01463127,0.00035247,0.00260496,-0.00288729,0.03161748,-0.07979386,-0.08954038,0.00272408,21177228.00000000,-0.00000000,-3146434217177513984.00000000,4267.56494141,-3211728715192991744.00000000,0.00000000,-0.00000000,0.00000000,75.03138733,-2594362831801417728.00000000,17729961695711069818766217105637376.00000000,0.00000000
0.20818509,0.01196466,9.88041687,-0.02234873,-0.00638535,-0.03299098,0.25286865,0.06768799,-0.48681641,0.00000000,-0.00000000,0.31000000,0.01100000,-0.00500000,-0.00100000,-0.99689174,-0.02028266,-0.00674199,0.07582974,-0.00686859,0.01566375,-0.00318369,-0.21343386,0.34946504,-0.14722137,-0.00443667,0.00060609,-0.04086943,0.06034561,0.02900566,0.01561141,0.01923154,0.01637741,0.01409503,-2.11242247,-1.45653355,14.69999981,0.52359879,0.00000000,0.00000000,5.00000000,0.03529500,0.00000000,1.00000000,100.00000000,30.00000000,354417344.00000000,0.00000000,0.00000000,119.00000000,0.17854922,0.31474045,8.93787956,0.09094658,0.09908771,0.06076375,0.32594725,0.16023764,-0.33856508,0.00412116,-0.00939825,1.50000000,0.39428145,-0.64892775,13.45799255,0.99960291,0.02408581,0.01462266,0.00035234,0.00268242,-0.00297387,0.03260482,-0.07979123,-0.08953071,0.00280002,21177228.00000000,-0.00000000,-3146434217177513984.00000000,4267.56494141,-3211728715192991744.00000000,0.00000000,-0.00000000,0.00000000,75.03138733,-2594362831801417728.00000000,17729961695711069818766217105637376.00000000,0.00000000
0.12682541,0.00957173,9.61480141,-0.02447718,-0.00532113,-0.02554140,0.25061035,0.06719971,-0.48803711,0.00000000,-0.00000000,0.31000000,0.01100000,-0.00500000,-0.00100000,-0.99689454,-0.02033870,-0.00679064,0.07577352,-0.00714374,0.01611470,-0.00337500,-0.21312377,0.34930402,-0.14818397,-0.00443667,0.00060609,-0.04086943,0.06034561,0.02900566,0.01561141,0.01923154,0.01637741,0.01409503,-2.14291430,-1.47942722,14.69999981,0.52359879,0.00000000,0.00000000,5.00000000,0.03658600,0.00000000,1.00000000,100.00000000,30.00000000,354417344.00000000,0.00000000,0.00000000,119.00000000,0.16604565,0.30007929,9.07086563,0.07573280,0.08407234,0.04534037,0.31483126,0.14627747,-0.36081722,0.00428624,-0.00966882,1.50000000,0.39412057,-0.64923692,13.46138668,0.99960291,0.02409121,0.01461300,0.00035218,0.00278255,-0.00308582,0.03388151,-0.07978791,-0.08951830,0.00289809,21177228.00000000,-0.00000000,-3146434217177513984.00000000,4267.56494141,-3211728715192991744.00000000,0.00000000,-0.00000000,0.00000000,75.03138733,-2594362831801417728.00000000,17729961695711069818766217105637376.00000000,0.00000000
0.14596885,0.09093142,9.53344154,-0.03192675,-0.00744958,-0.03511943,0.25061035,0.06719971,-0.48803711,0.00000000,-0.00000000,0.31000000,0.01100000,-0.00500000,-0.00100000,-0.99689579,-0.02036405,-0.00681291,0.07574776,-0.00729473,0.01636229,-0.00348037,-0.21296178,0.34920257,-0.14862576,-0.00443667,0.00060609,-0.04086943,0.06034561,0.02900566,0.01561141,0.01923154,0.01637741,0.01409503,-2.17228913,-1.50169098,14.69999981,0.52359879,0.00000000,0.00000000,5.00000000,0.03729500,0.00000000,1.00000000,100.00000000,30.00000000,354417344.00000000,0.00000000,0.00000000,119.00000000,0.15476955,0.28542146,9.19387627,0.06152025,0.07009404,0.03107300,0.30449885,0.13330658,-0.38149765,0.00437684,-0.00981737,1.50000000,0.39404705,-0.64938319,13.46306038,0.99960291,0.02409364,0.01460846,0.00035211,0.00283755,-0.00314733,0.03458283,-0.07978610,-0.08951151,0.00295193,21177228.00000000,-0.00000000,-3146434217177513984.00000000,4267.56494141,-3211728715192991744.00000000,0.00000000,-0.00000000,0.00000000,75.03138733,-2594362831801417728.00000000,17729961695711069818766217105637376.00000000,0.00000000
0.07178796,0.12443247,9.80623627,-0.03405520,-0.01064225,-0.03299098,0.25061035,0.06719971,-0.48803711,0.00000000,-0.00000000,0.31000000,0.01100000,-0.00500000,-0.00100000,-0.99689728,-0.02039268,-0.00683850,0.07571804,-0.00750768,0.01671168,-0.00362966,-0.21274373,0.34904140,-0.14913663,-0.00443667,0.00060609,-0.04086943,0.06034561,0.02900566,0.01561141,0.01923154,0.01637741,0.01409503,-2.20053577,-1.52332282,14.69999981,0.52359879,0.00000000,0.00000000,5.00000000,0.03829600,0.00000000,1.00000000,100.00000000,30.00000000,354417344.00000000,0.00000000,0.00000000,119.00000000,0.14453752,0.27107924,9.30716896,0.04824638,0.05710428,0.01789952,0.29491627,0.12128533,-0.40067014,0.00450461,-0.01002701,1.50000000,0.39396220,-0.64955729,13.46517372,0.99960291,0.02409631,0.01460302,0.00035202,0.00291522,-0.00323419,0.03557330,-0.07978357,-0.08950194,0.00302791,21177228.00000000,-0.00000000,-3146434217177513984.00000000,4267.56494141,-3211728715192991744.00000000,0.00000000,-0.00000000,0.00000000,75.03138733,-2594362831801417728.00000000,17729961695711069818766217105637376.00000000,0.00000000
0.05025157,0.20818509,10.04552937,-0.04044056,-0.00532113,-0.05214703,0.25427246,0.06713867,-0.48815918,0.00000000,-0.00000000,0.31000000,0.01100000,-0.00500000,-0.00100000,-0.99689883,-0.02042097,-0.00686451,0.07568765,-0.00778178,0.01716164,-0.00382272,-0.21247546,0.34881175,-0.14966084,-0.00443667,0.00060609,-0.04086943,0.06034561,0.02900566,0.01561141,0.01923154,0.01637741,0.01409503,-2.22763801,-1.54432070,14.69999981,0.52359879,0.00000000,0.00000000,5.00000000,0.03958600,0.00000000,1.00000000,100.00000000,30.00000000,354417344.00000000,0.00000000,0.00000000,119.00000000,0.13508798,0.25737917,9.41166687,0.03586150,0.04506768,0.00575301,0.28606310,0.11018127,-0.41838619,0.00466907,-0.01029699,1.50000000,0.39387545,-0.64974189,13.46760464,0.99960297,0.02409881,0.01459717,0.00035191,0.00301530,-0.00334616,0.03685014,-0.07978033,-0.08948965,0.00312579,21177228.00000000,-0.00000000,-3146434217177513984.00000000,4267.56494141,-3211728715192991744.00000000,0.00000000,-0.00000000,0.00000000,75.03138733,-2594362831801417728.00000000,17729961695711069818766217105637376.00000000,0.00000000
-0.10768194,0.21057802,9.87802410,-0.04256901,-0.00744958,-0.03937633,0.25427246,0.06713867,-0.48815918,0.00000000,-0.00000000,0.31000000,0.01100000,-0.00500000,-0.00100000,-0.99689949,-0.02043212,-0.00687527,0.07567496,-0.00793232,0.01740885,-0.00392899,-0.21233490,0.34867454,-0.14988099,-0.00443667,0.00060609,-0.04086943,0.06034561,0.02900566,0.01561141,0.01923154,0.01637741,0.01409503,-2.25359011,-1.56469274,14.69999981,0.52359879,0.00000000,0.00000000,5.00000000,0.04029500,0.00000000,1.00000000,100.00000000,30.00000000,354417344.00000000,0.00000000,0.00000000,119.00000000,0.12600896,0.24459982,9.50796413,0.02432710,0.03396545,-0.00542270,0.27792633,0.09996731,-0.43468830,0.00475939,-0.01044531,1.50000000,0.39384004,-0.64982343,13.46879101,0.99960297,0.02409971,0.01459457,0.00035186,0.00307032,-0.00340771,0.03755200,-0.07977857,-0.08948291,0.00317957,21177228.00000000,-0.00000000,-3146434217177513984.00000000,4267.56494141,-3211728715192991744.00000000,0.00000000,-0.00000000,0.00000000,75.03138733,-2594362831801417728.00000000,17729961695711069818766217105637376.00000000,0.00000000
0.04067985,0.16511232,9.63394451,-0.04895436,-0.00957803,-0.04044056,0.25427246,0.06713867,-0.48815918,0.00000000,-0.00000000,0.31000000,0.01100000,-0.00500000,-0.00100000,-0.99690020,-0.02044208,-0.00688589,0.07566220,-0.00814468,0.01775767,-0.00407924,-0.21214595,0.34846663,-0.15010414,-0.00443667,0.00060609,-0.04086943,0.06034561,0.02900566,0.01561141,0.01923154,0.01637741,0.01409503,-2.27836823,-1.58444071,14.69999981,0.52359879,0.00000000,0.00000000,5.00000000,0.04129600,0.00000000,1.00000000,100.00000000,30.00000000,354417344.00000000,0.00000000,0.00000000,119.00000000,0.11706059,0.23282357,9.59597015,0.01360362,0.02376629,-0.01565636,0.27048570,0.09061392,-0.44962260,0.00488681,-0.01065460,1.50000000,0.39380693,-0.64991283,13.47027206,0.99960303,0.02410037,0.01459174,0.00035181,0.00314799,-0.00349462,0.03854306,-0.07977608,-0.08947340,0.00325550,21177228.00000000,-0.00000000,-3146434217177513984.00000000,4267.56494141,-3211728715192991744.00000000,0.00000000,-0.00000000,0.00000000,75.03138733,-2594362831801417728.00000000,17729961695711069818766217105637376.00000000,0.00000000
0.07896676,0.16989818,9.71769714,-0.05108281,-0.01064225,-0.03086253,0.25476074,0.06616211,-0.48901367,0.00000000,-0.00000000,0.31000000,0.01100000,-0.00500000,-0.00100000,-0.99690080,-0.02044803,-0.00689417,0.07565183,-0.00841826,0.01820717,-0.00427327,-0.21191406,0.34818190,-0.15028919,-0.00443667,0.00060609,-0.04086943,0.06034561,0.02900566,0.01561141,0.01923154,0.01637741,0.01409503,-2.30194592,-1.60356379,14.69999981,0.52359879,0.00000000,0.00000000,5.00000000,0.04258700,0.00000000,1.00000000,100.00000000,30.00000000,354417344.00000000,0.00000000,0.00000000,119.00000000,0.10846370,0.22198392,9.67590427,0.00364362,0.01442511,-0.02497660,0.26371279,0.08208296,-0.46324825,0.00505096,-0.01092430,1.50000000,0.39378518,-0.64999789,13.47195816,0.99960303,0.02410051,0.01458911,0.00035174,0.00324817,-0.00360672,0.03982137,-0.07977287,-0.08946116,0.00335341,21177228.00000000,-0.00000000,-3146434217177513984.00000000,4267.56494141,-3211728715192991744.00000000,0.00000000,-0.00000000,0.00000000,75.03138733,-2594362831801417728.00000000,17729961695711069818766217105637376.00000000,0.00000000
-0.09332436,0.31825998,10.02877808,-0.05640393,-0.00744958,-0.04789013,0.25476074,0.06616211,-0.48901367,0.00000000,-0.00000000,0.31000000,0.01100000,-0.00500000,-0.00100000,-0.99690098,-0.02044778,-0.00689602,0.07564916,-0.00856842,0.01845392,-0.00437986,-0.21179296,0.34801739,-0.15033935,-0.00443667,0.00060609,-0.04086943,0.06034561,0.02900566,0.01561141,0.01923154,0.01637741,0.01409503,-2.32430792,-1.62206924,14.69999981,0.52359879,0.00000000,0.00000000,5.00000000,0.04329600,0.00000000,1.00000000,100.00000000,30.00000000,354417344.00000000,0.00000000,0.00000000,119.00000000,0.10021650,0.21221584,9.74883080,-0.00560390,0.00590152,-0.03343745,0.25757664,0.07433050,-0.47563353,0.00514105,-0.01107235,1.50000000,0.39378437,-0.65002984,13.47277069,0.99960303,0.02410024,0.01458820,0.00035172,0.00330318,-0.00366829,0.04052343,-0.07977112,-0.08945444,0.00340718,21177228.00000000,-0.00000000,-3146434217177513984.00000000,4267.56494141,-3211728715192991744.00000000,0.00000000,-0.00000000,0.00000000,75.03138733,-2594362831801417728.00000000,17729961695711069818766217105637376.00000000,0.00000000
-0.11964661,0.50490868,10.05270767,-0.05533971,-0.00957803,-0.05214703,0.25476074,0.06616211,-0.48901367,0.00000000,-0.00000000,0.31000000,0.01100000,-0.00500000,-0.00100000,-0.99690109,-0.02044283,-0.00689518,0.07564928,-0.00877963,0.01880100,-0.00452990,-0.21163121,0.34777629,-0.15034352,-0.00443667,0.00060609,-0.04086943,0.06034561,0.02900566,0.01561141,0.01923154,0.01637741,0.01409503,-2.34542704,-1.63996136,14.69999981,0.52359879,0.00000000,0.00000000,5.00000000,0.04429400,0.00000000,1.00000000,100.00000000,30.00000000,354417344.00000000,0.00000000,0.00000000,119.00000000,0.09193070,0.20398697,9.81564140,-0.01418208,-0.00184150,-0.04110968,0.25204468,0.06731526,-0.48684344,0.00526778,-0.01128060,1.50000000,0.39379877,-0.65005738,13.47376823,0.99960309,0.02409948,0.01458766,0.00035169,0.00338061,-0.00375495,0.04151165,-0.07976864,-0.08944498,0.00348287,21177228.00000000,-0.00000000,-3146434217177513984.00000000,4267.56494141,-3211728715192991744.00000000,0.00000000,-0.00000000,0.00000000,75.03138733,-2594362831801417728.00000000,17729961695711069818766217105637376.00000000,0.00000000
0.00717880,0.65566343,9.72726917,-0.05746816,-0.00957803,-0.06278928,0.25292969,0.06665039,-0.48992920,0.00000000,-0.00000000,0.31000000,0.01100000,-0.00500000,-0.00100000,-0.99690104,-0.02043094,-0.00689005,0.07565396,-0.00905301,0.01925026,-0.00472420,-0.21143268,0.34745479,-0.15027098,-0.00443667,0.00060609,-0.04086943,0.06034561,0.02900566,0.01561141,0.01923154,0.01637741,0.01409503,-2.36528039,-1.65724325,14.69999981,0.52359879,0.00000000,0.00000000,5.00000000,0.04558700,0.00000000,1.00000000,100.00000000,30.00000000,354417344.00000000,0.00000000,0.00000000,119.00000000,0.08365428,0.19788818,9.87606525,-0.02212042,-0.00884419,-0.04805718,0.24708311,0.06100172,-0.49693629,0.00543181,-0.01155015,1.50000000,0.39383698,-0.65007609,13.47488785,0.99960315,0.02409817,0.01458786,0.00035168,0.00348091,-0.00386722,0.04279193,-0.07976541,-0.08943272,0.00358093,21177228.00000000,-0.00000000,-3146434217177513984.00000000,4267.56494141,-3211728715192991744.00000000,0.00000000,-0.00000000,0.00000000,75.03138733,-2594362831801417728.00000000,17729961695711069818766217105637376.00000000,0.00000000
-0.00239293,0.98349512,9.22953892,-0.05533971,-0.00744958,-0.06066084,0.25292969,0.06665039,-0.48992920,0.00000000,-0.00000000,0.31000000,0.01100000,-0.00500000,-0.00100000,-0.99690092,-0.02042168,-0.00688526,0.07565875,-0.00920242,0.01949578,-0.00483039,-0.21132968,0.34727621,-0.15019388,-0.00443667,0.00060609,-0.04086943,0.06034561,0.02900566,0.01561141,0.01923154,0.01637741,0.01409503,-2.38386607,-1.67392528,14.69999981,0.52359879,0.00000000,0.00000000,5.00000000,0.04629400,0.00000000,1.00000000,100.00000000,30.00000000,354417344.00000000,0.00000000,0.00000000,119.00000000,0.07570463,0.19473498,9.92905331,-0.02944052,-0.01514076,-0.05433721,0.24265812,0.05535677,-0.50596780,0.00552145,-0.01169747,1.50000000,0.39386776,-0.65008122,13.47541904,0.99960315,0.02409742,0.01458843,0.00035168,0.00353575,-0.00392860,0.04349194,-0.07976364,-0.08942600,0.00363455,21177228.00000000,-0.00000000,-3146434217177513984.00000000,4267.56494141,-3211728715192991744.00000000,0.00000000,-0.00000000,0.00000000,75.03138733,-2594362831801417728.00000000,17729961695711069818766217105637376.00000000,0.00000000
-0.25604373,1.35918546,9.17689514,-0.05214703,-0.00532113,-0.05533971,0.25292969,0.06665039,-0.48992920,0.00000000,-0.00000000,0.31000000,0.01100000,-0.00500000,-0.00100000,-0.99690062,-0.02040498,-0.00687600,0.07566841,-0.00941382,0.01984315,-0.00498058,-0.21119121,0.34702411,-0.15003958,-0.00443667,0.00060609,-0.04086943,0.06034561,0.02900566,0.01561141,0.01923154,0.01637741,0.01409503,-2.40117812,-1.69001651,14.69999981,0.52359879,0.00000000,0.00000000,5.00000000,0.04729500,0.00000000,1.00000000,100.00000000,30.00000000,354417344.00000000,0.00000000,0.00000000,119.00000000,0.06777903,0.19584613,9.97399902,-0.03615781,-0.02075768,-0.06000033,0.23873851,0.05034539,-0.51399481,0.00564829,-0.01190589,1.50000000,0.39392447,-0.65008950,13.47607040,0.99960309,0.02409656,0.01458982,0.00035170,0.00361339,-0.00401551,0.04448296,-0.07976112,-0.08941649,0.00371049,21177228.00000000,-0.00000000,-3146434217177513984.00000000,4267.56494141,-3211728715192991744.00000000,0.00000000,-0.00000000,0.00000000,75.03138733,-2594362831801417728.00000000,17729961695711069818766217105637376.00000000,0.00000000
0.07418089,1.11032045,9.45447445,-0.04469746,-0.00425690,-0.05640393,0.25439453,0.06610107,-0.49169922,0.00000000,-0.00000000,0.31000000,0.01100000,-0.00500000,-0.00100000,-0.99690002,-0.02037921,-0.00686121,0.07568418,-0.00968646,0.02029110,-0.00517411,-0.21102147,0.34670684,-0.14979163,-0.00443667,0.00060609,-0.04086943,0.06034561,0.02900566,0.01561141,0.01923154,0.01637741,0.01409503,-2.41722488,-1.70553136,14.69999981,0.52359879,0.00000000,0.00000000,5.00000000,0.04858700,0.00000000,1.00000000,100.00000000,30.00000000,354417344.00000000,0.00000000,0.00000000,119.00000000,0.05965528,0.20198064,10.01140690,-0.04227899,-0.02572487,-0.06508774,0.23529522,0.04592922,-0.52107978,0.00581188,-0.01217466,1.50000000,0.39401361,-0.65011436,13.47680378,0.99960309,0.02409617,0.01459233,0.00035176,0.00371357,-0.00412766,0.04576188,-0.07975783,-0.08940419,0.00380851,21177228.00000000,-0.00000000,-3146434217177513984.00000000,4267.56494141,-3211728715192991744.00000000,0.00000000,-0.00000000,0.00000000,75.03138733,-2594362831801417728.00000000,17729961695711069818766217105637376.00000000,0.00000000
-0.98828095,1.61044335,9.72487640,-0.03405520,-0.00851380,-0.05853238,0.25439453,0.06610107,-0.49169922,0.00000000,-0.00000000,0.31000000,0.01100000,-0.00500000,-0.00100000,-0.99689960,-0.02036301,-0.00685175,0.07569445,-0.00983580,0.02053645,-0.00528005,-0.21093342,0.34654117,-0.14963351,-0.00443667,0.00060609,-0.04086943,0.06034561,0.02900566,0.01561141,0.01923154,0.01637741,0.01409503,-2.43205643,-1.72049153,14.69999981,0.52359879,0.00000000,0.00000000,5.00000000,0.04929500,0.00000000,1.00000000,100.00000000,30.00000000,354417344.00000000,0.00000000,0.00000000,119.00000000,0.05066782,0.21328188,10.04224491,-0.04779912,-0.03008340,-0.06963667,0.23229977,0.04206907,-0.52728790,0.00590148,-0.01232187,1.50000000,0.39407128,-0.65014255,13.47715664,0.99960309,0.02409658,0.01459408,0.00035181,0.00376846,-0.00418911,0.04646264,-0.07975602,-0.08939744,0.00386224,21177228.00000000,-0.00000000,-3146434217177513984.00000000,4267.56494141,-3211728715192991744.00000000,0.00000000,-0.00000000,0.00000000,75.03138733,-2594362831801417728.00000000,17729961695711069818766217105637376.00000000,0.00000000
0.45944297,1.50036848,9.69137478,-0.03724788,-0.02128450,-0.08726646,0.25439453,0.06610107,-0.49169922,0.00000000,-0.00000000,0.31000000,0.01100000,-0.00500000,-0.00100000,-0.99689895,-0.02033750,-0.00683670,0.07571102,-0.01004683,0.02088312,-0.00542958,-0.21081629,0.34632459,-0.14938425,-0.00443667,0.00060609,-0.04086943,0.06034561,0.02900566,0.01561141,0.01923154,0.01637741,0.01409503,-2.44571662,-1.73489976,14.69999981,0.52359879,0.00000000,0.00000000,5.00000000,0.05029600,0.00000000,1.00000000,100.00000000,30.00000000,354417344.00000000,0.00000000,0.00000000,119.00000000,0.04064226,0.23014027,10.06711102,-0.05271865,-0.03389500,-0.07370282,0.22972360,0.03872819,-0.53267789,0.00602810,-0.01252987,1.50000000,0.39416596,-0.65021402,13.47759914,0.99960297,0.02409844,0.01459710,0.00035191,0.00384605,-0.00427598,0.04745326,-0.07975343,-0.08938788,0.00393822,21177228.00000000,-0.00000000,-3146434217177513984.00000000,4267.56494141,-3211728715192991744.00000000,0.00000000,-0.00000000,0.00000000,75.03138733,-2594362831801417728.00000000,17729961695711069818766217105637376.00000000,0.00000000
0.94042236,0.28715184,9.47361851,-0.03618366,-0.02234873,-0.10216562,0.25506592,0.06591797,-0.49182129,0.00000000,-0.00000000,0.31000000,0.01100000,-0.00500000,-0.00100000,-0.99689806,-0.02030163,-0.00681541,0.07573479,-0.01031881,0.02132990,-0.00562199,-0.21067192,0.34607312,-0.14903672,-0.00443667,0.00060609,-0.04086943,0.06034561,0.02900566,0.01561141,0.01923154,0.01637741,0.01409503,-2.45825005,-1.74874353,14.69999981,0.52359879,0.00000000,0.00000000,5.00000000,0.05158700,0.00000000,1.00000000,100.00000000,30.00000000,354417344.00000000,0.00000000,0.00000000,119.00000000,0.03243206,0.25077552,10.08632278,-0.05705914,-0.03722690,-0.07738055,0.22754057,0.03587230,-0.53730237,0.00619129,-0.01279794,1.50000000,0.39429983,-0.65035594,13.47811222,0.99960279,0.02410277,0.01460149,0.00035208,0.00394610,-0.00438801,0.04873060,-0.07975004,-0.08937552,0.00403623,21177228.00000000,-0.00000000,-3146434217177513984.00000000,4267.56494141,-3211728715192991744.00000000,0.00000000,-0.00000000,0.00000000,75.03138733,-2594362831801417728.00000000,17729961695711069818766217105637376.00000000,0.00000000
1.14382160,-0.21297096,9.32525635,-0.02554140,-0.03937633,-0.08088111,0.25506592,0.06591797,-0.49182129,0.00000000,-0.00000000,0.31000000,0.01100000,-0.00500000,-0.00100000,-0.99689752,-0.02028057,-0.00680284,0.07574899,-0.01046770,0.02157449,-0.00572722,-0.21059346,0.34594998,-0.14883587,-0.00443667,0.00060609,-0.04086943,0.06034561,0.02900566,0.01561141,0.01923154,0.01637741,0.01409503,-2.46974802,-1.76200616,14.69999981,0.52359879,0.00000000,0.00000000,5.00000000,0.05229400,0.00000000,1.00000000,100.00000000,30.00000000,354417344.00000000,0.00000000,0.00000000,119.00000000,0.02850930,0.27116278,10.10037136,-0.06083298,-0.04014663,-0.08072872,0.22572678,0.03346802,-0.54121256,0.00628062,-0.01294469,1.50000000,0.39437419,-0.65045977,13.47836971,0.99960268,0.02410615,0.01460396,0.00035219,0.00400087,-0.00444935,0.04943004,-0.07974817,-0.08936874,0.00408992,21177228.00000000,-0.00000000,-3146434217177513984.00000000,4267.56494141,-3211728715192991744.00000000,0.00000000,-0.00000000,0.00000000,75.03138733,-2594362831801417728.00000000,17729961695711069818766217105637376.00000000,0.00000000
1.31371975,0.29193771,9.71051884,-0.01383493,-0.05533971,-0.05640393,0.25506592,0.06591797,-0.49182129,0.00000000,-0.00000000,0.31000000,0.01100000,-0.00500000,-0.00100000,-0.99689662,-0.02024905,-0.00678390,0.07577061,-0.01067839,0.02192063,-0.00587591,-0.21047868,0.34579369,-0.14854082,-0.00443667,0.00060609,-0.04086943,0.06034561,0.02900566,0.01561141,0.01923154,0.01637741,0.01409503,-2.48028135,-1.77463472,14.69999981,0.52359879,0.00000000,0.00000000,5.00000000,0.05329500,0.00000000,1.00000000,100.00000000,30.00000000,354417344.00000000,0.00000000,0.00000000,119.00000000,0.02968945,0.28938746,10.11031723,-0.06403203,-0.04274851,-0.08372814,0.22425619,0.03148266,-0.54445958,0.00640703,-0.01315238,1.50000000,0.39447266,-0.65063918,13.47871017,0.99960250,0.02411218,0.01460723,0.00035235,0.00407840,-0.00453620,0.05042016,-0.07974548,-0.08935911,0.00416596,21177228.00000000,-0.00000000,-3146434217177513984.00000000,4267.56494141,-3211728715192991744.00000000,0.00000000,-0.00000000,0.00000000,75.03138733,-2594362831801417728.00000000,17729961695711069818766217105637376.00000000,0.00000000
0.00957173,1.02178204,10.37096786,-0.01383493,-0.07130308,-0.05001858,0.25549316,0.06628418,-0.49176025,0.00000000,-0.00000000,0.31000000,0.01100000,-0.00500000,-0.00100000,-0.99689543,-0.02020657,-0.00675811,0.07580020,-0.01094991,0.02236681,-0.00606717,-0.21032037,0.34561363,-0.14814973,-0.00443667,0.00060609,-0.04086943,0.06034561,0.02900566,0.01561141,0.01923154,0.01637741,0.01409503,-2.48992968,-1.78654671,14.69999981,0.52359879,0.00000000,0.00000000,5.00000000,0.05458600,0.00000000,1.00000000,100.00000000,30.00000000,354417344.00000000,0.00000000,0.00000000,119.00000000,0.03548412,0.30654067,10.11791611,-0.06666337,-0.04513758,-0.08634826,0.22310141,0.02988453,-0.54709387,0.00656995,-0.01342009,1.50000000,0.39458090,-0.65090889,13.47912693,0.99960220,0.02412141,0.01461076,0.00035257,0.00417835,-0.00464819,0.05169681,-0.07974195,-0.08934666,0.00426406,21177228.00000000,-0.00000000,-3146434217177513984.00000000,4267.56494141,-3211728715192991744.00000000,0.00000000,-0.00000000,0.00000000,75.03138733,-2594362831801417728.00000000,17729961695711069818766217105637376.00000000,0.00000000
-0.40679845,0.70352203,10.41164780,-0.01064225,-0.07023886,-0.06704619,0.25549316,0.06628418,-0.49176025,0.00000000,-0.00000000,0.31000000,0.01100000,-0.00500000,-0.00100000,-0.99689472,-0.02018243,-0.00674322,0.07581726,-0.01109896,0.02261179,-0.00617205,-0.21022642,0.34552592,-0.14792985,-0.00443667,0.00060609,-0.04086943,0.06034561,0.02900566,0.01561141,0.01923154,0.01637741,0.01409503,-2.49882483,-1.79765236,14.69999981,0.52359879,0.00000000,0.00000000,5.00000000,0.05529500,0.00000000,1.00000000,100.00000000,30.00000000,354417344.00000000,0.00000000,0.00000000,119.00000000,0.04310271,0.32342669,10.12456322,-0.06875612,-0.04738595,-0.08859538,0.22223648,0.02864335,-0.54916406,0.00665938,-0.01356708,1.50000000,0.39462763,-0.65107715,13.47934341,0.99960208,0.02412724,0.01461225,0.00035269,0.00423322,-0.00470969,0.05239784,-0.07973999,-0.08933981,0.00431795,21177228.00000000,-0.00000000,-3146434217177513984.00000000,4267.56494141,-3211728715192991744.00000000,0.00000000,-0.00000000,0.00000000,75.03138733,-2594362831801417728.00000000,17729961695711069818766217105637376.00000000,0.00000000
-0.42115605,0.14596885,9.76555634,0.00106423,-0.07662421,-0.08194534,0.25549316,0.06628418,-0.49176025,0.00000000,-0.00000000,0.31000000,0.01100000,-0.00500000,-0.00100000,-0.99689364,-0.02014756,-0.00672125,0.07584225,-0.01130884,0.02295686,-0.00631951,-0.21008517,0.34541720,-0.14761412,-0.00443667,0.00060609,-0.04086943,0.06034561,0.02900566,0.01561141,0.01923154,0.01637741,0.01409503,-2.50705171,-1.80785465,14.69999981,0.52359879,0.00000000,0.00000000,5.00000000,0.05629400,0.00000000,1.00000000,100.00000000,30.00000000,354417344.00000000,0.00000000,0.00000000,119.00000000,0.05002512,0.33903176,10.12997437,-0.07032169,-0.04953033,-0.09050016,0.22163719,0.02773004,-0.55071604,0.00678530,-0.01377412,1.50000000,0.39467734,-0.65134072,13.47963715,0.99960178,0.02413647,0.01461375,0.00035286,0.00431050,-0.00479634,0.05338542,-0.07973718,-0.08933013,0.00439390,21177228.00000000,-0.00000000,-3146434217177513984.00000000,4267.56494141,-3211728715192991744.00000000,0.00000000,-0.00000000,0.00000000,75.03138733,-2594362831801417728.00000000,17729961695711069818766217105637376.00000000,0.00000000
0.16989818,-0.57669663,9.50233364,0.00851380,-0.07449576,-0.05321126,0.25524902,0.06536865,-0.49096680,0.00000000,-0.00000000,0.31000000,0.01100000,-0.00500000,-0.00100000,-0.99689221,-0.02010162,-0.00669153,0.07587566,-0.01158044,0.02340367,-0.00650999,-0.20989357,0.34529290,-0.14720039,-0.00443667,0.00060609,-0.04086943,0.06034561,0.02900566,0.01561141,0.01923154,0.01637741,0.01409503,-2.51470780,-1.81706190,14.69999981,0.52359879,0.00000000,0.00000000,5.00000000,0.05758800,0.00000000,1.00000000,100.00000000,30.00000000,354417344.00000000,0.00000000,0.00000000,119.00000000,0.05530045,0.35193014,10.13322735,-0.07135146,-0.05159374,-0.09205730,0.22128068,0.02711580,-0.55179214,0.00694826,-0.01404220,1.50000000,0.39472583,-0.65171170,13.48000526,0.99960148,0.02414954,0.01461513,0.00035309,0.00441055,-0.00490858,0.05466431,-0.07973347,-0.08931755,0.00449233,21177228.00000000,-0.00000000,-3146434217177513984.00000000,4267.56494141,-3211728715192991744.00000000,0.00000000,-0.00000000,0.00000000,75.03138733,-2594362831801417728.00000000,17729961695711069818766217105637376.00000000,0.00000000
-0.24168615,-1.14860737,10.18431950,0.01596338,-0.08407379,-0.02128450,0.25524902,0.06536865,-0.49096680,0.00000000,-0.00000000,0.31000000,0.01100000,-0.00500000,-0.00100000,-0.99689144,-0.02007628,-0.00667461,0.07589433,-0.01172876,0.02364775,-0.00661390,-0.20978609,0.34523100,-0.14697279,-0.00443667,0.00060609,-0.04086943,0.06034561,0.02900566,0.01561141,0.01923154,0.01637741,0.01409503,-2.52196407,-1.82519841,14.69999981,0.52359879,0.00000000,0.00000000,5.00000000,0.05829500,0.00000000,1.00000000,100.00000000,30.00000000,354417344.00000000,0.00000000,0.00000000,119.00000000,0.05825472,0.36054015,10.13512897,-0.07185052,-0.05359329,-0.09320906,0.22114477,0.02677223,-0.55243212,0.00703725,-0.01418865,1.50000000,0.39474717,-0.65192527,13.48020363,0.99960130,0.02415708,0.01461569,0.00035321,0.00446518,-0.00496990,0.05536295,-0.07973142,-0.08931067,0.00454612,21177228.00000000,-0.00000000,-3146434217177513984.00000000,4267.56494141,-3211728715192991744.00000000,0.00000000,-0.00000000,0.00000000,75.03138733,-2594362831801417728.00000000,17729961695711069818766217105637376.00000000,0.00000000
-0.46662176,-0.92845768,10.45232773,0.01809183,-0.09045914,-0.02022028,0.25524902,0.06536865,-0.49096680,0.00000000,-0.00000000,0.31000000,0.01100000,-0.00500000,-0.00100000,-0.99689031,-0.02004038,-0.00664971,0.07592113,-0.01193839,0.02399290,-0.00676055,-0.20963427,0.34514672,-0.14664847,-0.00443667,0.00060609,-0.04086943,0.06034561,0.02900566,0.01561141,0.01923154,0.01637741,0.01409503,-2.52892542,-1.83218503,14.69999981,0.52359879,0.00000000,0.00000000,5.00000000,0.05929500,0.00000000,1.00000000,100.00000000,30.00000000,354417344.00000000,0.00000000,0.00000000,119.00000000,0.05807108,0.36314714,10.13740635,-0.07184320,-0.05554883,-0.09393562,0.22120754,0.02667280,-0.55267590,0.00716304,-0.01439574,1.50000000,0.39477757,-0.65223300,13.48047829,0.99960101,0.02416797,0.01461649,0.00035339,0.00454242,-0.00505663,0.05635094,-0.07972847,-0.08930090,0.00462223,21177228.00000000,-0.00000000,-3146434217177513984.00000000,4267.56494141,-3211728715192991744.00000000,0.00000000,-0.00000000,0.00000000,75.03138733,-2594362831801417728.00000000,17729961695711069818766217105637376.00000000,0.00000000
-0.05503744,-0.28715184,9.50233364,0.02128450,-0.08726646,-0.02341295,0.25292969,0.06652832,-0.48950195,0.00000000,-0.00000000,0.31000000,0.01100000,-0.00500000,-0.00100000,-0.99688882,-0.01999420,-0.00661628,0.07595598,-0.01220899,0.02443868,-0.00694948,-0.20944259,0.34503463,-0.14622743,-0.00443667,0.00060609,-0.04086943,0.06034561,0.02900566,0.01561141,0.01923154,0.01637741,0.01409503,-2.53569269,-1.83795094,14.69999981,0.52359879,0.00000000,0.00000000,5.00000000,0.06058700,0.00000000,1.00000000,100.00000000,30.00000000,354417344.00000000,0.00000000,0.00000000,119.00000000,0.05575195,0.35935807,10.13906002,-0.07136087,-0.05746986,-0.09427142,0.22144486,0.02679392,-0.55256069,0.00732540,-0.01466321,1.50000000,0.39482450,-0.65262479,13.48082829,0.99960065,0.02418184,0.01461783,0.00035363,0.00464216,-0.00516867,0.05762710,-0.07972458,-0.08928823,0.00472061,21177228.00000000,-0.00000000,-3146434217177513984.00000000,4267.56494141,-3211728715192991744.00000000,0.00000000,-0.00000000,0.00000000,75.03138733,-2594362831801417728.00000000,17729961695711069818766217105637376.00000000,0.00000000
-0.15075472,0.30868825,8.16707706,0.03618366,-0.07236731,-0.03511943,0.25292969,0.06652832,-0.48950195,0.00000000,-0.00000000,0.31000000,0.01100000,-0.00500000,-0.00100000,-0.99688798,-0.01996918,-0.00659728,0.07597508,-0.01235721,0.02468292,-0.00705284,-0.20934038,0.34496787,-0.14599910,-0.00443667,0.00060609,-0.04086943,0.06034561,0.02900566,0.01561141,0.01923154,0.01637741,0.01409503,-2.54243398,-1.84246695,14.69999981,0.52359879,0.00000000,0.00000000,5.00000000,0.06129500,0.00000000,1.00000000,100.00000000,30.00000000,354417344.00000000,0.00000000,0.00000000,119.00000000,0.05338950,0.35072061,10.13595581,-0.07041749,-0.05933276,-0.09423324,0.22183171,0.02711427,-0.55211997,0.00741432,-0.01480975,1.50000000,0.39485523,-0.65282977,13.48102474,0.99960047,0.02418907,0.01461874,0.00035375,0.00469678,-0.00523007,0.05832632,-0.07972243,-0.08928128,0.00477454,21177228.00000000,-0.00000000,-3146434217177513984.00000000,4267.56494141,-3211728715192991744.00000000,0.00000000,-0.00000000,0.00000000,75.03138733,-2594362831801417728.00000000,17729961695711069818766217105637376.00000000,0.00000000
0.02632225,0.79445344,7.90385485,0.05001858,-0.06598196,-0.03086253,0.25292969,0.06652832,-0.48950195,0.00000000,-0.00000000,0.31000000,0.01100000,-0.00500000,-0.00100000,-0.99688679,-0.01993444,-0.00656948,0.07600190,-0.01256661,0.02502813,-0.00719868,-0.20920011,0.34486482,-0.14568773,-0.00443667,0.00060609,-0.04086943,0.06034561,0.02900566,0.01561141,0.01923154,0.01637741,0.01409503,-2.54926682,-1.84571624,14.69999981,0.52359879,0.00000000,0.00000000,5.00000000,0.06229600,0.00000000,1.00000000,100.00000000,30.00000000,354417344.00000000,0.00000000,0.00000000,119.00000000,0.05131378,0.34041381,10.12486839,-0.06900221,-0.06109966,-0.09381830,0.22234841,0.02761319,-0.55138701,0.00753997,-0.01501688,1.50000000,0.39490613,-0.65310389,13.48132801,0.99960023,0.02419866,0.01462028,0.00035393,0.00477399,-0.00531686,0.05931472,-0.07971934,-0.08927142,0.00485081,21177228.00000000,-0.00000000,-3146434217177513984.00000000,4267.56494141,-3211728715192991744.00000000,0.00000000,-0.00000000,0.00000000,75.03138733,-2594362831801417728.00000000,17729961695711069818766217105637376.00000000,0.00000000
0.26082960,0.77291709,9.02374744,0.05533971,-0.06385351,-0.01170648,0.25415039,0.06701660,-0.48834229,0.00000000,-0.00000000,0.31000000,0.01100000,-0.00500000,-0.00100000,-0.99688530,-0.01989078,-0.00653246,0.07603602,-0.01283647,0.02547317,-0.00738627,-0.20902483,0.34472373,-0.14530997,-0.00443667,0.00060609,-0.04086943,0.06034561,0.02900566,0.01561141,0.01923154,0.01637741,0.01409503,-2.55631733,-1.84770191,14.69999981,0.52359879,0.00000000,0.00000000,5.00000000,0.06358700,0.00000000,1.00000000,100.00000000,30.00000000,354417344.00000000,0.00000000,0.00000000,119.00000000,0.04908027,0.33196455,10.10667324,-0.06711406,-0.06274540,-0.09302941,0.22298017,0.02827173,-0.55039316,0.00770188,-0.01528390,1.50000000,0.39498156,-0.65344256,13.48177147,0.99959993,0.02421039,0.01462257,0.00035416,0.00487351,-0.00542879,0.06058918,-0.07971529,-0.08925864,0.00494921,21177228.00000000,-0.00000000,-3146434217177513984.00000000,4267.56494141,-3211728715192991744.00000000,0.00000000,-0.00000000,0.00000000,75.03138733,-2594362831801417728.00000000,17729961695711069818766217105637376.00000000,0.00000000
0.02153639,0.21057802,10.66290569,0.05214703,-0.05427548,-0.00957803,0.25415039,0.06701660,-0.48834229,0.00000000,-0.00000000,0.31000000,0.01100000,-0.00500000,-0.00100000,-0.99688452,-0.01986759,-0.00651153,0.07605437,-0.01298460,0.02571752,-0.00748916,-0.20893130,0.34464380,-0.14511758,-0.00443667,0.00060609,-0.04086943,0.06034561,0.02900566,0.01561141,0.01923154,0.01637741,0.01409503,-2.56375647,-1.84848022,14.69999981,0.52359879,0.00000000,0.00000000,5.00000000,0.06429600,0.00000000,1.00000000,100.00000000,30.00000000,354417344.00000000,0.00000000,0.00000000,119.00000000,0.04659327,0.32674566,10.08555317,-0.06478466,-0.06423959,-0.09190128,0.22371361,0.02907270,-0.54916656,0.00779076,-0.01543051,1.50000000,0.39502785,-0.65362400,13.48204803,0.99959970,0.02421661,0.01462397,0.00035428,0.00492814,-0.00549025,0.06128900,-0.07971305,-0.08925161,0.00500327,21177228.00000000,-0.00000000,-3146434217177513984.00000000,4267.56494141,-3211728715192991744.00000000,0.00000000,-0.00000000,0.00000000,75.03138733,-2594362831801417728.00000000,17729961695711069818766217105637376.00000000,0.00000000
-0.97392339,-0.36133274,11.68947315,0.04576168,-0.02447718,-0.01064225,0.25415039,0.06701660,-0.48834229,0.00000000,-0.00000000,0.31000000,0.01100000,-0.00500000,-0.00100000,-0.99688333,-0.01983618,-0.00648126,0.07607957,-0.01319340,0.02606205,-0.00763403,-0.20880443,0.34452939,-0.14486550,-0.00443667,0.00060609,-0.04086943,0.06034561,0.02900566,0.01561141,0.01923154,0.01637741,0.01409503,-2.57168031,-1.84812033,14.69999981,0.52359879,0.00000000,0.00000000,5.00000000,0.06529600,0.00000000,1.00000000,100.00000000,30.00000000,354417344.00000000,0.00000000,0.00000000,119.00000000,0.04279803,0.32297856,10.06633663,-0.06206831,-0.06550694,-0.09049883,0.22453524,0.02999806,-0.54773605,0.00791604,-0.01563723,1.50000000,0.39510199,-0.65387678,13.48248100,0.99959946,0.02422518,0.01462623,0.00035446,0.00500516,-0.00557693,0.06227593,-0.07970984,-0.08924165,0.00507954,21177228.00000000,-0.00000000,-3146434217177513984.00000000,4267.56494141,-3211728715192991744.00000000,0.00000000,-0.00000000,0.00000000,75.03138733,-2594362831801417728.00000000,17729961695711069818766217105637376.00000000,0.00000000
-1.36397135,-0.75377363,11.55546951,0.04150478,0.02022028,-0.01489915,0.25323486,0.06689453,-0.48675537,0.00000000,-0.00000000,0.31000000,0.01100000,-0.00500000,-0.00100000,-0.99688202,-0.01979753,-0.00644139,0.07611111,-0.01346298,0.02650699,-0.00782079,-0.20865177,0.34437758,-0.14455757,-0.00443667,0.00060609,-0.04086943,0.06034561,0.02900566,0.01561141,0.01923154,0.01637741,0.01409503,-2.58016372,-1.84675539,14.69999981,0.52359879,0.00000000,0.00000000,5.00000000,0.06658800,0.00000000,1.00000000,100.00000000,30.00000000,354417344.00000000,0.00000000,0.00000000,119.00000000,0.03573823,0.31735450,10.05265713,-0.05902796,-0.06641828,-0.08885685,0.22543155,0.03102935,-0.54612827,0.00807779,-0.01590419,1.50000000,0.39521781,-0.65419608,13.48307800,0.99959916,0.02423592,0.01462984,0.00035471,0.00510464,-0.00568891,0.06355079,-0.07970564,-0.08922873,0.00517812,21177228.00000000,-0.00000000,-3146434217177513984.00000000,4267.56494141,-3211728715192991744.00000000,0.00000000,-0.00000000,0.00000000,75.03138733,-2594362831801417728.00000000,17729961695711069818766217105637376.00000000,0.00000000
-2.25892782,-0.50012279,10.41404057,0.03724788,0.06491774,-0.00957803,0.25323486,0.06689453,-0.48675537,0.00000000,-0.00000000,0.31000000,0.01100000,-0.00500000,-0.00100000,-0.99688131,-0.01977751,-0.00641931,0.07612773,-0.01361065,0.02675074,-0.00792302,-0.20857836,0.34428942,-0.14439380,-0.00443667,0.00060609,-0.04086943,0.06034561,0.02900566,0.01561141,0.01923154,0.01637741,0.01409503,-2.58929992,-1.84463882,14.69999981,0.52359879,0.00000000,0.00000000,5.00000000,0.06729600,0.00000000,1.00000000,100.00000000,30.00000000,354417344.00000000,0.00000000,0.00000000,119.00000000,0.02305533,0.30759883,10.04578686,-0.05573285,-0.06681766,-0.08696263,0.22638966,0.03214945,-0.54436588,0.00816639,-0.01605045,1.50000000,0.39529964,-0.65436202,13.48341560,0.99959898,0.02424144,0.01463250,0.00035486,0.00515912,-0.00575026,0.06424932,-0.07970332,-0.08922164,0.00523215,21177228.00000000,-0.00000000,-3146434217177513984.00000000,4267.56494141,-3211728715192991744.00000000,0.00000000,-0.00000000,0.00000000,75.03138733,-2594362831801417728.00000000,17729961695711069818766217105637376.00000000,0.00000000
-1.11032045,0.48097935,9.25825405,0.04789013,0.08620223,0.02447718,0.25323486,0.06689453,-0.48675537,0.00000000,-0.00000000,0.31000000,0.01100000,-0.00500000,-0.00100000,-0.99688029,-0.01975101,-0.00638811,0.07615010,-0.01381894,0.02709456,-0.00806705,-0.20849682,0.34415594,-0.14416476,-0.00443667,0.00060609,-0.04086943,0.06034561,0.02900566,0.01561141,0.01923154,0.01637741,0.01409503,-2.59911656,-1.84204054,14.69999981,0.52359879,0.00000000,0.00000000,5.00000000,0.06829500,0.00000000,1.00000000,100.00000000,30.00000000,354417344.00000000,0.00000000,0.00000000,119.00000000,0.00333718,0.29468778,10.04392624,-0.05224160,-0.06657165,-0.08476881,0.22739767,0.03334339,-0.54247200,0.00829137,-0.01625673,1.50000000,0.39545473,-0.65457964,13.48389816,0.99959874,0.02424862,0.01463770,0.00035509,0.00523600,-0.00583682,0.06523484,-0.07970001,-0.08921159,0.00530842,21177228.00000000,-0.00000000,-3146434217177513984.00000000,4267.56494141,-3211728715192991744.00000000,0.00000000,-0.00000000,0.00000000,75.03138733,-2594362831801417728.00000000,17729961695711069818766217105637376.00000000,0.00000000
1.76359093,1.64633727,9.34200668,0.05321126,0.10003716,0.04363323,0.24609375,0.06835938,-0.48779297,0.00000000,-0.00000000,0.31000000,0.01100000,-0.00500000,-0.00100000,-0.99687910,-0.01971915,-0.00634817,0.07617739,-0.01408823,0.02753897,-0.00825292,-0.20842321,0.34397361,-0.14386910,-0.00443667,0.00060609,-0.04086943,0.06034561,0.02900566,0.01561141,0.01923154,0.01637741,0.01409503,-2.60963821,-1.83926487,14.69999981,0.52359879,0.00000000,0.00000000,5.00000000,0.06958700,0.00000000,1.00000000,100.00000000,30.00000000,354417344.00000000,0.00000000,0.00000000,119.00000000,-0.01903402,0.28292981,10.04356956,-0.04858284,-0.06559539,-0.08222514,0.22843519,0.03459953,-0.54047060,0.00845294,-0.01652338,1.50000000,0.39571244,-0.65484333,13.48452187,0.99959844,0.02425725,0.01464654,0.00035543,0.00533540,-0.00594874,0.06650916,-0.07969568,-0.08919853,0.00540708,21177228.00000000,-0.00000000,-3146434217177513984.00000000,4267.56494141,-3211728715192991744.00000000,0.00000000,-0.00000000,0.00000000,75.03138733,-2594362831801417728.00000000,17729961695711069818766217105637376.00000000,0.00000000
2.60590315,1.29218340,10.48104286,0.04256901,0.11174364,0.02234873,0.24609375,0.06835938,-0.48779297,0.00000000,-0.00000000,0.31000000,0.01100000,-0.00500000,-0.00100000,-0.99687850,-0.01970307,-0.00632676,0.07619135,-0.01423598,0.02778277,-0.00835481,-0.20839554,0.34387094,-0.14370756,-0.00443667,0.00060609,-0.04086943,0.06034561,0.02900566,0.01561141,0.01923154,0.01637741,0.01409503,-2.62090755,-1.83669853,14.69999981,0.52359879,0.00000000,0.00000000,5.00000000,0.07029600,0.00000000,1.00000000,100.00000000,30.00000000,354417344.00000000,0.00000000,0.00000000,119.00000000,-0.03574897,0.27622354,10.04256725,-0.04478708,-0.06383964,-0.07936142,0.22947562,0.03590835,-0.53838491,0.00854159,-0.01666966,1.50000000,0.39587674,-0.65498316,13.48486519,0.99959821,0.02426180,0.01465223,0.00035563,0.00538993,-0.00601014,0.06720839,-0.07969329,-0.08919134,0.00546124,21177228.00000000,-0.00000000,-3146434217177513984.00000000,4267.56494141,-3211728715192991744.00000000,0.00000000,-0.00000000,0.00000000,75.03138733,-2594362831801417728.00000000,17729961695711069818766217105637376.00000000,0.00000000
2.47429180,-0.43312073,11.25395966,0.04469746,0.09471604,-0.01702760,0.24609375,0.06835938,-0.48779297,0.00000000,-0.00000000,0.31000000,0.01100000,-0.00500000,-0.00100000,-0.99687773,-0.01968247,-0.00629768,0.07620947,-0.01444392,0.02812581,-0.00849801,-0.20836335,0.34372514,-0.14348139,-0.00443667,0.00060609,-0.04086943,0.06034561,0.02900566,0.01561141,0.01923154,0.01637741,0.01409503,-2.63292623,-1.83465219,14.69999981,0.52359879,0.00000000,0.00000000,5.00000000,0.07129400,0.00000000,1.00000000,100.00000000,30.00000000,354417344.00000000,0.00000000,0.00000000,119.00000000,-0.04162134,0.27352214,10.04134464,-0.04089269,-0.06132913,-0.07630040,0.23050471,0.03725889,-0.53623581,0.00866636,-0.01687549,1.50000000,0.39612016,-0.65517765,13.48535156,0.99959791,0.02426812,0.01466070,0.00035593,0.00546669,-0.00609656,0.06819252,-0.07968990,-0.08918118,0.00553748,21177228.00000000,-0.00000000,-3146434217177513984.00000000,4267.56494141,-3211728715192991744.00000000,0.00000000,-0.00000000,0.00000000,75.03138733,-2594362831801417728.00000000,17729961695711069818766217105637376.00000000,0.00000000
2.49582815,-0.80881107,10.62222576,0.05108281,0.08407379,-0.05108281,0.25286865,0.06573486,-0.48583984,0.00000000,-0.00000000,0.31000000,0.01100000,-0.00500000,-0.00100000,-0.99687678,-0.01965853,-0.00626183,0.07623090,-0.01471307,0.02856965,-0.00868301,-0.20831352,0.34353212,-0.14318918,-0.00443667,0.00060609,-0.04086943,0.06034561,0.02900566,0.01561141,0.01923154,0.01637741,0.01409503,-2.64569998,-1.83337581,14.69999981,0.52359879,0.00000000,0.00000000,5.00000000,0.07258600,0.00000000,1.00000000,100.00000000,30.00000000,354417344.00000000,0.00000000,0.00000000,119.00000000,-0.03411591,0.27078432,10.04110718,-0.03691110,-0.05819242,-0.07318527,0.23152407,0.03863679,-0.53403986,0.00882784,-0.01714179,1.50000000,0.39642051,-0.65542144,13.48598289,0.99959761,0.02427600,0.01467111,0.00035630,0.00556606,-0.00620842,0.06946632,-0.07968546,-0.08916797,0.00563621,21177228.00000000,-0.00000000,-3146434217177513984.00000000,4267.56494141,-3211728715192991744.00000000,0.00000000,-0.00000000,0.00000000,75.03138733,-2594362831801417728.00000000,17729961695711069818766217105637376.00000000,0.00000000
1.97177613,-0.59584010,9.79905701,0.03937633,0.09471604,-0.05214703,0.25286865,0.06573486,-0.48583984,0.00000000,-0.00000000,0.31000000,0.01100000,-0.00500000,-0.00100000,-0.99687630,-0.01964694,-0.00624333,0.07624155,-0.01486052,0.02881280,-0.00878427,-0.20827173,0.34342065,-0.14302850,-0.00443667,0.00060609,-0.04086943,0.06034561,0.02900566,0.01561141,0.01923154,0.01637741,0.01409503,-2.65924239,-1.83311427,14.69999981,0.52359879,0.00000000,0.00000000,5.00000000,0.07329400,0.00000000,1.00000000,100.00000000,30.00000000,354417344.00000000,0.00000000,0.00000000,119.00000000,-0.01228826,0.26580930,10.04241562,-0.03286723,-0.05456329,-0.07012746,0.23254091,0.04002676,-0.53181052,0.00891631,-0.01728768,1.50000000,0.39655897,-0.65554464,13.48632717,0.99959743,0.02427993,0.01467585,0.00035647,0.00562051,-0.00626970,0.07016427,-0.07968303,-0.08916072,0.00569033,21177228.00000000,-0.00000000,-3146434217177513984.00000000,4267.56494141,-3211728715192991744.00000000,0.00000000,-0.00000000,0.00000000,75.03138733,-2594362831801417728.00000000,17729961695711069818766217105637376.00000000,0.00000000
1.00981736,-0.26800841,9.96895504,0.03405520,0.11600054,-0.04150478,0.25286865,0.06573486,-0.48583984,0.00000000,-0.00000000,0.31000000,0.01100000,-0.00500000,-0.00100000,-0.99687570,-0.01963275,-0.00621905,0.07625510,-0.01506870,0.02915605,-0.00892707,-0.20818216,0.34325054,-0.14279874,-0.00443667,0.00060609,-0.04086943,0.06034561,0.02900566,0.01561141,0.01923154,0.01637741,0.01409503,-2.67352653,-1.83403146,14.69999981,0.52291209,0.00000000,0.00000000,5.00000000,0.07429400,0.00000000,1.00000000,100.00000000,30.00000000,354417344.00000000,0.00000000,0.00000000,119.00000000,0.02027351,0.25778040,10.04602432,-0.02883056,-0.05049438,-0.06720142,0.23355640,0.04141757,-0.52956104,0.00904122,-0.01749363,1.50000000,0.39669946,-0.65569574,13.48680782,0.99959725,0.02428465,0.01468051,0.00035665,0.00569740,-0.00635624,0.07114995,-0.07967956,-0.08915044,0.00576677,21177228.00000000,-0.00000000,-3146434217177513984.00000000,4267.56494141,-3211728715192991744.00000000,0.00000000,-0.00000000,0.00000000,75.03138733,-2594362831801417728.00000000,17729961695711069818766217105637376.00000000,0.00000000
0.13879006,0.55037439,10.50975800,0.04044056,0.12025744,-0.04256901,0.25360107,0.06817627,-0.48590088,0.00000000,-0.00000000,0.31000000,0.01100000,-0.00500000,-0.00100000,-0.99687499,-0.01961719,-0.00619030,0.07627083,-0.01533789,0.02959990,-0.00911146,-0.20802298,0.34300950,-0.14249419,-0.00443667,0.00060609,-0.04086943,0.06034561,0.02900566,0.01561141,0.01923154,0.01637741,0.01409503,-2.68851233,-1.83629322,14.69999981,0.52014899,0.00000000,0.00000000,5.00000000,0.07558800,0.00000000,1.00000000,100.00000000,30.00000000,354417344.00000000,0.00000000,0.00000000,119.00000000,0.05628644,0.24685487,10.05258656,-0.02485007,-0.04599537,-0.06447036,0.23457113,0.04280304,-0.52730405,0.00920273,-0.01775994,1.50000000,0.39680317,-0.65585321,13.48741245,0.99959707,0.02428938,0.01468368,0.00035680,0.00579688,-0.00646821,0.07242519,-0.07967506,-0.08913710,0.00586571,21177228.00000000,-0.00000000,-3146434217177513984.00000000,4267.56494141,-3211728715192991744.00000000,0.00000000,-0.00000000,0.00000000,75.03138733,-2594362831801417728.00000000,17729961695711069818766217105637376.00000000,0.00000000
-0.22732855,0.98110217,10.32550240,0.04044056,0.12132167,-0.04469746,0.25360107,0.06817627,-0.48590088,0.00000000,-0.00000000,0.31000000,0.01100000,-0.00500000,-0.00100000,-0.99687463,-0.01961022,-0.00617622,0.07627852,-0.01548467,0.02984197,-0.00921194,-0.20791429,0.34286648,-0.14232314,-0.00443667,0.00060609,-0.04086943,0.06034561,0.02900566,0.01561141,0.01923154,0.01637741,0.01409503,-2.70415664,-1.84008372,14.69999981,0.51786935,0.00000000,0.00000000,5.00000000,0.07629400,0.00000000,1.00000000,100.00000000,30.00000000,354417344.00000000,0.00000000,0.00000000,119.00000000,0.08953340,0.23562959,10.06044006,-0.02093207,-0.04108818,-0.06196994,0.23558837,0.04417943,-0.52505052,0.00929080,-0.01790518,1.50000000,0.39682031,-0.65591824,13.48773193,0.99959701,0.02429121,0.01468396,0.00035684,0.00585114,-0.00652929,0.07312087,-0.07967259,-0.08912981,0.00591969,21177228.00000000,-0.00000000,-3146434217177513984.00000000,4267.56494141,-3211728715192991744.00000000,0.00000000,-0.00000000,0.00000000,75.03138733,-2594362831801417728.00000000,17729961695711069818766217105637376.00000000,0.00000000
0.12443247,0.51448041,9.59326458,0.04044056,0.13515660,-0.04150478,0.25360107,0.06817627,-0.48590088,0.00000000,-0.00000000,0.31000000,0.01100000,-0.00500000,-0.00100000,-0.99687415,-0.01960247,-0.00615874,0.07628820,-0.01569241,0.03018462,-0.00935401,-0.20773365,0.34265104,-0.14207612,-0.00443667,0.00060609,-0.04086943,0.06034561,0.02900566,0.01561141,0.01923154,0.01637741,0.01409503,-2.72042513,-1.84554994,14.69999981,0.51606369,0.00000000,0.00000000,5.00000000,0.07729400,0.00000000,1.00000000,100.00000000,30.00000000,354417344.00000000,0.00000000,0.00000000,119.00000000,0.11814651,0.22704905,10.06594563,-0.01708174,-0.03578819,-0.05966067,0.23660478,0.04554233,-0.52281201,0.00941544,-0.01811077,1.50000000,0.39679635,-0.65598702,13.48817444,0.99959701,0.02429296,0.01468259,0.00035683,0.00592798,-0.00661579,0.07410612,-0.07966909,-0.08911947,0.00599616,21177228.00000000,-0.00000000,-3146434217177513984.00000000,4267.56494141,-3211728715192991744.00000000,0.00000000,-0.00000000,0.00000000,75.03138733,-2594362831801417728.00000000,17729961695711069818766217105637376.00000000,0.00000000
0.57908958,-0.22254269,9.44011688,0.03724788,0.15111998,-0.02128450,0.25292969,0.06677246,-0.48480225,0.00000000,-0.00000000,0.31000000,0.01100000,-0.00500000,-0.00100000,-0.99687356,-0.01959516,-0.00613959,0.07629924,-0.01596087,0.03062763,-0.00953745,-0.20746852,0.34236023,-0.14175540,-0.00443667,0.00060609,-0.04086943,0.06034561,0.02900566,0.01561141,0.01923154,0.01637741,0.01409503,-2.73728371,-1.85284698,14.69999981,0.51446217,0.00000000,0.00000000,5.00000000,0.07858800,0.00000000,1.00000000,100.00000000,30.00000000,354417344.00000000,0.00000000,0.00000000,119.00000000,0.14390707,0.22146234,10.06737614,-0.01331456,-0.03008915,-0.05744170,0.23761024,0.04688649,-0.52059919,0.00957652,-0.01837658,1.50000000,0.39670849,-0.65605396,13.48874283,0.99959701,0.02429441,0.01467872,0.00035675,0.00602739,-0.00672770,0.07538078,-0.07966455,-0.08910607,0.00609514,21177228.00000000,-0.00000000,-3146434217177513984.00000000,4267.56494141,-3211728715192991744.00000000,0.00000000,-0.00000000,0.00000000,75.03138733,-2594362831801417728.00000000,17729961695711069818766217105637376.00000000,0.00000000
0.96195871,-0.64848459,10.11013794,0.02979830,0.16176222,0.00000000,0.25292969,0.06677246,-0.48480225,0.00000000,-0.00000000,0.31000000,0.01100000,-0.00500000,-0.00100000,-0.99687326,-0.01959262,-0.00613115,0.07630447,-0.01610764,0.03086991,-0.00963768,-0.20730636,0.34219512,-0.14158051,-0.00443667,0.00060609,-0.04086943,0.06034561,0.02900566,0.01561141,0.01923154,0.01637741,0.01409503,-2.75466514,-1.86212218,14.69999981,0.51270682,0.00000000,0.00000000,5.00000000,0.07929600,0.00000000,1.00000000,100.00000000,30.00000000,354417344.00000000,0.00000000,0.00000000,119.00000000,0.16926512,0.21673563,10.06711864,-0.00965674,-0.02400011,-0.05521646,0.23859482,0.04820658,-0.51842034,0.00966459,-0.01852194,1.50000000,0.39662945,-0.65607959,13.48905563,0.99959707,0.02429480,0.01467546,0.00035668,0.00608176,-0.00678893,0.07607812,-0.07966206,-0.08909873,0.00614929,21177228.00000000,-0.00000000,-3146434217177513984.00000000,4267.56494141,-3211728715192991744.00000000,0.00000000,-0.00000000,0.00000000,75.03138733,-2594362831801417728.00000000,17729961695711069818766217105637376.00000000,0.00000000
1.67265952,-0.61976939,10.37575340,0.02234873,0.15431264,-0.01489915,0.25292969,0.06677246,-0.48480225,0.00000000,-0.00000000,0.31000000,0.01100000,-0.00500000,-0.00100000,-0.99687284,-0.01959104,-0.00612228,0.07631066,-0.01631449,0.03121152,-0.00977888,-0.20705201,0.34195146,-0.14133315,-0.00443667,0.00060609,-0.04086943,0.06034561,0.02900566,0.01561141,0.01923154,0.01637741,0.01409503,-2.77251410,-1.87350178,14.69999981,0.51086128,0.00000000,0.00000000,5.00000000,0.08029500,0.00000000,1.00000000,100.00000000,30.00000000,354417344.00000000,0.00000000,0.00000000,119.00000000,0.19630842,0.21004923,10.06834888,-0.00614684,-0.01757315,-0.05297520,0.23955457,0.04949687,-0.51628232,0.00978869,-0.01872691,1.50000000,0.39647171,-0.65609640,13.48949528,0.99959713,0.02429463,0.01466915,0.00035653,0.00615846,-0.00687531,0.07706194,-0.07965855,-0.08908837,0.00622571,21177228.00000000,-0.00000000,-3146434217177513984.00000000,4267.56494141,-3211728715192991744.00000000,0.00000000,-0.00000000,0.00000000,75.03138733,-2594362831801417728.00000000,17729961695711069818766217105637376.00000000,0.00000000
2.25174904,-0.09332436,9.50233364,0.02022028,0.12983547,-0.03299098,0.25170898,0.06689453,-0.48577881,0.00000000,-0.00000000,0.31000000,0.01100000,-0.00500000,-0.00100000,-0.99687237,-0.01959147,-0.00611491,0.07631721,-0.01658173,0.03165323,-0.00996120,-0.20668519,0.34161696,-0.14101183,-0.00443667,0.00060609,-0.04086943,0.06034561,0.02900566,0.01561141,0.01923154,0.01637741,0.01409503,-2.79076695,-1.88707244,14.69999981,0.50910819,0.00000000,0.00000000,5.00000000,0.08158800,0.00000000,1.00000000,100.00000000,30.00000000,354417344.00000000,0.00000000,0.00000000,119.00000000,0.22743589,0.19993874,10.07010460,-0.00282003,-0.01090789,-0.05079603,0.24048814,0.05075090,-0.51419210,0.00994904,-0.01899194,1.50000000,0.39619929,-0.65608311,13.49006176,0.99959737,0.02429313,0.01465846,0.00035624,0.00625769,-0.00698711,0.07833504,-0.07965401,-0.08907498,0.00632463,21177228.00000000,-0.00000000,-3146434217177513984.00000000,4267.56494141,-3211728715192991744.00000000,0.00000000,-0.00000000,0.00000000,75.03138733,-2594362831801417728.00000000,17729961695711069818766217105637376.00000000,0.00000000
2.33789468,0.67480683,8.32740402,0.01489915,0.10535829,-0.04682591,0.25170898,0.06689453,-0.48577881,0.00000000,-0.00000000,0.31000000,0.01100000,-0.00500000,-0.00100000,-0.99687213,-0.01959300,-0.00611316,0.07632003,-0.01672770,0.03189461,-0.01006078,-0.20645997,0.34142166,-0.14083867,-0.00443667,0.00060609,-0.04086943,0.06034561,0.02900566,0.01561141,0.01923154,0.01637741,0.01409503,-2.80931067,-1.90282011,14.69999981,0.50750387,0.00000000,0.00000000,5.00000000,0.08229500,0.00000000,1.00000000,100.00000000,30.00000000,354417344.00000000,0.00000000,0.00000000,119.00000000,0.26463491,0.18782103,10.06756592,0.00029793,-0.00413511,-0.04874400,0.24139234,0.05196285,-0.51215684,0.01003662,-0.01913677,1.50000000,0.39600578,-0.65605336,13.49037647,0.99959749,0.02429147,0.01465097,0.00035604,0.00631193,-0.00704823,0.07903108,-0.07965153,-0.08906765,0.00637872,21177228.00000000,-0.00000000,-3146434217177513984.00000000,4267.56494141,-3211728715192991744.00000000,0.00000000,-0.00000000,0.00000000,75.03138733,-2594362831801417728.00000000,17729961695711069818766217105637376.00000000,0.00000000
1.05289018,0.65566343,8.20297146,0.01170648,0.07875266,-0.06385351,0.25170898,0.06689453,-0.48577881,0.00000000,-0.00000000,0.31000000,0.01100000,-0.00500000,-0.00100000,-0.99687183,-0.01959685,-0.00611392,0.07632301,-0.01693360,0.03223540,-0.01020124,-0.20610155,0.34112868,-0.14060529,-0.00443667,0.00060609,-0.04086943,0.06034561,0.02900566,0.01561141,0.01923154,0.01637741,0.01409503,-2.82806969,-1.92070782,14.69999981,0.50621915,0.00000000,0.00000000,5.00000000,0.08329400,0.00000000,1.00000000,100.00000000,30.00000000,354417344.00000000,0.00000000,0.00000000,119.00000000,0.30712855,0.17677197,10.05729866,0.00318446,0.00259716,-0.04685250,0.24226320,0.05313038,-0.51018322,0.01016016,-0.01934124,1.50000000,0.39565963,-0.65598041,13.49084663,0.99959779,0.02428793,0.01463767,0.00035566,0.00638854,-0.00713460,0.08001445,-0.07964803,-0.08905732,0.00645515,21177228.00000000,-0.00000000,-3146434217177513984.00000000,4267.56494141,-3211728715192991744.00000000,0.00000000,-0.00000000,0.00000000,75.03138733,-2594362831801417728.00000000,17729961695711069818766217105637376.00000000,0.00000000
-0.60780478,0.27758011,9.02614021,0.01064225,0.06278928,-0.06491774,0.24664307,0.06787109,-0.48645020,0.00000000,-0.00000000,0.31000000,0.01100000,-0.00500000,-0.00100000,-0.99687147,-0.01960386,-0.00611896,0.07632571,-0.01719921,0.03267563,-0.01038254,-0.20558482,0.34073159,-0.14032647,-0.00443667,0.00060609,-0.04086943,0.06034561,0.02900566,0.01561141,0.01923154,0.01637741,0.01409503,-2.84696913,-1.94063616,14.69999981,0.50536138,0.00000000,0.00000000,5.00000000,0.08458600,0.00000000,1.00000000,100.00000000,30.00000000,354417344.00000000,0.00000000,0.00000000,119.00000000,0.35010630,0.16861799,10.04044724,0.00582806,0.00912918,-0.04516738,0.24309067,0.05425506,-0.50827807,0.01031953,-0.01960538,1.50000000,0.39511538,-0.65585285,13.49150467,0.99959826,0.02428204,0.01461684,0.00035507,0.00648755,-0.00724630,0.08128604,-0.07964351,-0.08904399,0.00655400,21177228.00000000,-0.00000000,-3146434217177513984.00000000,4267.56494141,-3211728715192991744.00000000,0.00000000,-0.00000000,0.00000000,75.03138733,-2594362831801417728.00000000,17729961695711069818766217105637376.00000000,0.00000000
-1.64633727,0.17468405,9.79905701,0.00638535,0.05853238,-0.04576168,0.24664307,0.06787109,-0.48645020,0.00000000,-0.00000000,0.31000000,0.01100000,-0.00500000,-0.00100000,-0.99687129,-0.01960875,-0.00612385,0.07632664,-0.01734517,0.03291773,-0.01048222,-0.20527513,0.34050593,-0.14018783,-0.00443667,0.00060609,-0.04086943,0.06034561,0.02900566,0.01561141,0.01923154,0.01637741,0.01409503,-2.86587787,-1.96236038,14.69999981,0.50489616,0.00000000,0.00000000,5.00000000,0.08529700,0.00000000,1.00000000,100.00000000,30.00000000,354417344.00000000,0.00000000,0.00000000,119.00000000,0.38705853,0.16340862,10.02039051,0.00822766,0.01532823,-0.04371358,0.24386123,0.05533931,-0.50644785,0.01040710,-0.01975064,1.50000000,0.39477003,-0.65576953,13.49189949,0.99959850,0.02427825,0.01460366,0.00035469,0.00654201,-0.00730777,0.08198574,-0.07964103,-0.08903667,0.00660840,21177228.00000000,-0.00000000,-3146434217177513984.00000000,4267.56494141,-3211728715192991744.00000000,0.00000000,-0.00000000,0.00000000,75.03138733,-2594362831801417728.00000000,17729961695711069818766217105637376.00000000,0.00000000
-1.83298600,0.07418089,9.98331261,-0.00532113,0.07449576,-0.03618366,0.24664307,0.06787109,-0.48645020,0.00000000,-0.00000000,0.31000000,0.01100000,-0.00500000,-0.00100000,-0.99687099,-0.01961689,-0.00613352,0.07632728,-0.01754957,0.03325723,-0.01062195,-0.20481539,0.34018272,-0.14001481,-0.00443667,0.00060609,-0.04086943,0.06034561,0.02900566,0.01561141,0.01923154,0.01637741,0.01409503,-2.88472128,-1.98570776,14.69999981,0.50484842,0.00000000,0.00000000,5.00000000,0.08629500,0.00000000,1.00000000,100.00000000,30.00000000,354417344.00000000,0.00000000,0.00000000,119.00000000,0.41296130,0.16017261,9.99927902,0.01037032,0.02114591,-0.04246611,0.24457131,0.05638222,-0.50469553,0.01052974,-0.01995434,1.50000000,0.39423963,-0.65564072,13.49250031,0.99959898,0.02427242,0.01458341,0.00035412,0.00661841,-0.00739405,0.08296778,-0.07963756,-0.08902642,0.00668476,21177228.00000000,-0.00000000,-3146434217177513984.00000000,4267.56494141,-3211728715192991744.00000000,0.00000000,-0.00000000,0.00000000,75.03138733,-2594362831801417728.00000000,17729961695711069818766217105637376.00000000,0.00000000
-1.66308784,-0.34936810,9.93306160,-0.01915605,0.09045914,-0.03937633,0.24591064,0.06762695,-0.48577881,0.00000000,-0.00000000,0.31000000,0.01100000,-0.00500000,-0.00100000,-0.99687064,-0.01962889,-0.00614945,0.07632735,-0.01781320,0.03369585,-0.01080246,-0.20420550,0.33975860,-0.13981888,-0.00443667,0.00060609,-0.04086943,0.06034561,0.02900566,0.01561141,0.01923154,0.01637741,0.01409503,-2.90341330,-2.01053786,14.69999981,0.50510883,0.00000000,0.00000000,5.00000000,0.08758600,0.00000000,1.00000000,100.00000000,30.00000000,354417344.00000000,0.00000000,0.00000000,119.00000000,0.42527875,0.15674013,9.97800636,0.01222110,0.02662931,-0.04138212,0.24522194,0.05738082,-0.50302088,0.01068792,-0.02021751,1.50000000,0.39352530,-0.65546262,13.49333954,0.99959958,0.02426434,0.01455611,0.00035334,0.00671716,-0.00750567,0.08423799,-0.07963310,-0.08901323,0.00678354,21177228.00000000,-0.00000000,-3146434217177513984.00000000,4267.56494141,-3211728715192991744.00000000,0.00000000,-0.00000000,0.00000000,75.03138733,-2594362831801417728.00000000,17729961695711069818766217105637376.00000000,0.00000000
-0.19143458,-0.44269246,9.37311554,-0.02128450,0.08726646,-0.04256901,0.24591064,0.06762695,-0.48577881,0.00000000,-0.00000000,0.31000000,0.01100000,-0.00500000,-0.00100000,-0.99687046,-0.01963617,-0.00616001,0.07632701,-0.01795795,0.03393691,-0.01090167,-0.20387065,0.33952168,-0.13972601,-0.00443667,0.00060609,-0.04086943,0.06034561,0.02900566,0.01561141,0.01923154,0.01637741,0.01409503,-2.92178798,-2.03662944,14.69999981,0.50547218,0.00000000,0.00000000,5.00000000,0.08829600,0.00000000,1.00000000,100.00000000,30.00000000,354417344.00000000,0.00000000,0.00000000,119.00000000,0.42536947,0.15084757,9.95724106,0.01374872,0.03184884,-0.04041664,0.24581157,0.05833320,-0.50142312,0.01077477,-0.02036215,1.50000000,0.39313319,-0.65535790,13.49383450,0.99959993,0.02425959,0.01454109,0.00035290,0.00677145,-0.00756707,0.08493651,-0.07963066,-0.08900598,0.00683787,21177228.00000000,-0.00000000,-3146434217177513984.00000000,4267.56494141,-3211728715192991744.00000000,0.00000000,-0.00000000,0.00000000,75.03138733,-2594362831801417728.00000000,17729961695711069818766217105637376.00000000,0.00000000
0.96674460,1.06724775,9.52386951,-0.00638535,0.06172506,-0.04895436,0.24591064,0.06762695,-0.48577881,0.00000000,-0.00000000,0.31000000,0.01100000,-0.00500000,-0.00100000,-0.99687022,-0.01964722,-0.00617729,0.07632605,-0.01816115,0.03427576,-0.01104114,-0.20340656,0.33918291,-0.13961524,-0.00443667,0.00060609,-0.04086943,0.06034561,0.02900566,0.01561141,0.01923154,0.01637741,0.01409503,-2.93975973,-2.06388688,14.69999981,0.50594348,0.00000000,0.00000000,5.00000000,0.08929500,0.00000000,1.00000000,100.00000000,30.00000000,354417344.00000000,0.00000000,0.00000000,119.00000000,0.41917986,0.14385103,9.93752289,0.01496670,0.03680929,-0.03953571,0.24634081,0.05923924,-0.49990270,0.01089669,-0.02056545,1.50000000,0.39259365,-0.65520054,13.49457359,0.99960035,0.02425246,0.01452037,0.00035230,0.00684779,-0.00765346,0.08591930,-0.07962724,-0.08899584,0.00691430,21177228.00000000,-0.00000000,-3146434217177513984.00000000,4267.56494141,-3211728715192991744.00000000,0.00000000,-0.00000000,0.00000000,75.03138733,-2594362831801417728.00000000,17729961695711069818766217105637376.00000000,0.00000000
-0.13639714,2.08902979,9.99049187,-0.01170648,0.02128450,-0.07555999,0.24688721,0.06817627,-0.48565674,0.00000000,-0.00000000,0.31000000,0.01100000,-0.00500000,-0.00100000,-0.99686992,-0.01966234,-0.00620254,0.07632426,-0.01842319,0.03471341,-0.01122137,-0.20281608,0.33874321,-0.13949519,-0.00443667,0.00060609,-0.04086943,0.06034561,0.02900566,0.01561141,0.01923154,0.01637741,0.01409503,-2.95726252,-2.09217763,14.69999981,0.50661373,0.00000000,0.00000000,5.00000000,0.09058700,0.00000000,1.00000000,100.00000000,30.00000000,354417344.00000000,0.00000000,0.00000000,119.00000000,0.41166317,0.14107741,9.91956139,0.01591114,0.04141998,-0.03877564,0.24681441,0.06010012,-0.49846026,0.01105391,-0.02082805,1.50000000,0.39191243,-0.65499341,13.49557972,0.99960095,0.02424301,0.01449412,0.00035152,0.00694644,-0.00776519,0.08719023,-0.07962284,-0.08898278,0.00701315,21177228.00000000,-0.00000000,-3146434217177513984.00000000,4267.56494141,-3211728715192991744.00000000,0.00000000,-0.00000000,0.00000000,75.03138733,-2594362831801417728.00000000,17729961695711069818766217105637376.00000000,0.00000000
0.09571729,0.03828691,8.84906292,-0.02447718,-0.01489915,-0.05746816,0.24688721,0.06817627,-0.48565674,0.00000000,-0.00000000,0.31000000,0.01100000,-0.00500000,-0.00100000,-0.99686974,-0.01967098,-0.00621781,0.07632305,-0.01856656,0.03495307,-0.01132009,-0.20249748,0.33850551,-0.13944173,-0.00443667,0.00060609,-0.04086943,0.06034561,0.02900566,0.01561141,0.01923154,0.01637741,0.01409503,-2.97415876,-2.12116909,14.69999981,0.50756192,0.00000000,0.00000000,5.00000000,0.09129500,0.00000000,1.00000000,100.00000000,30.00000000,354417344.00000000,0.00000000,0.00000000,119.00000000,0.40397158,0.14400408,9.90192890,0.01658414,0.04552570,-0.03820481,0.24723890,0.06091700,-0.49709517,0.01113993,-0.02097184,1.50000000,0.39154780,-0.65488565,13.49615860,0.99960130,0.02423799,0.01448003,0.00035111,0.00700049,-0.00782644,0.08788667,-0.07962044,-0.08897565,0.00706732,21177228.00000000,-0.00000000,-3146434217177513984.00000000,4267.56494141,-3211728715192991744.00000000,0.00000000,-0.00000000,0.00000000,75.03138733,-2594362831801417728.00000000,17729961695711069818766217105637376.00000000,0.00000000
0.86863434,-1.42140174,7.69566965,-0.00638535,-0.03192675,-0.08300956,0.24688721,0.06817627,-0.48565674,0.00000000,-0.00000000,0.31000000,0.01100000,-0.00500000,-0.00100000,-0.99686950,-0.01968351,-0.00624104,0.07632115,-0.01876841,0.03529091,-0.01145934,-0.20205326,0.33817476,-0.13938817,-0.00443667,0.00060609,-0.04086943,0.06034561,0.02900566,0.01561141,0.01923154,0.01637741,0.01409503,-2.99039674,-2.15059948,14.69999981,0.50897837,0.00000000,0.00000000,5.00000000,0.09229400,0.00000000,1.00000000,100.00000000,30.00000000,354417344.00000000,0.00000000,0.00000000,119.00000000,0.39784843,0.14717084,9.87982750,0.01700545,0.04897732,-0.03786178,0.24761873,0.06168998,-0.49580631,0.01126105,-0.02117455,1.50000000,0.39104247,-0.65474164,13.49702358,0.99960172,0.02423113,0.01446044,0.00035053,0.00707670,-0.00791286,0.08886932,-0.07961708,-0.08896562,0.00714375,21177228.00000000,-0.00000000,-3146434217177513984.00000000,4267.56494141,-3211728715192991744.00000000,0.00000000,-0.00000000,0.00000000,75.03138733,-2594362831801417728.00000000,17729961695711069818766217105637376.00000000,0.00000000
-2.15124607,0.48337230,8.86342049,0.00957803,-0.01489915,-0.08939491,0.24639893,0.06866455,-0.48559570,0.00000000,-0.00000000,0.31000000,0.01100000,-0.00500000,-0.00100000,-0.99686915,-0.01970003,-0.00627287,0.07631860,-0.01902893,0.03572762,-0.01163953,-0.20148633,0.33775035,-0.13935539,-0.00443667,0.00060609,-0.04086943,0.06034561,0.02900566,0.01561141,0.01923154,0.01637741,0.01409503,-3.00596690,-2.18018746,14.69999981,0.51097208,0.00000000,0.00000000,5.00000000,0.09358700,0.00000000,1.00000000,100.00000000,30.00000000,354417344.00000000,0.00000000,0.00000000,119.00000000,0.39108464,0.14821726,9.85143948,0.01726172,0.05171465,-0.03778876,0.24795580,0.06241975,-0.49459264,0.01141736,-0.02143658,1.50000000,0.39040190,-0.65456116,13.49822330,0.99960232,0.02422232,0.01443550,0.00034980,0.00717528,-0.00802474,0.09014113,-0.07961275,-0.08895273,0.00724267,21177228.00000000,-0.00000000,-3146434217177513984.00000000,4267.56494141,-3211728715192991744.00000000,0.00000000,-0.00000000,0.00000000,75.03138733,-2594362831801417728.00000000,17729961695711069818766217105637376.00000000,0.00000000
-2.63940406,1.58651400,11.07688236,-0.00638535,-0.04576168,-0.01489915,0.24639893,0.06866455,-0.48559570,0.00000000,-0.00000000,0.31000000,0.01100000,-0.00500000,-0.00100000,-0.99686897,-0.01970919,-0.00629104,0.07631723,-0.01917157,0.03596693,-0.01173833,-0.20118608,0.33752212,-0.13935773,-0.00443667,0.00060609,-0.04086943,0.06034561,0.02900566,0.01561141,0.01923154,0.01637741,0.01409503,-3.02081251,-2.20951915,14.69999981,0.51323301,0.00000000,0.00000000,5.00000000,0.09429600,0.00000000,1.00000000,100.00000000,30.00000000,354417344.00000000,0.00000000,0.00000000,119.00000000,0.37539464,0.15127438,9.82241058,0.01740455,0.05373339,-0.03789931,0.24825132,0.06310833,-0.49345309,0.01150294,-0.02158016,1.50000000,0.39006954,-0.65447015,13.49892616,0.99960262,0.02421771,0.01442248,0.00034942,0.00722931,-0.00808610,0.09083851,-0.07961038,-0.08894568,0.00729691,21177228.00000000,-0.00000000,-3146434217177513984.00000000,4267.56494141,-3211728715192991744.00000000,0.00000000,-0.00000000,0.00000000,75.03138733,-2594362831801417728.00000000,17729961695711069818766217105637376.00000000,0.00000000
-2.16560364,0.30390239,11.46214485,-0.00319268,-0.03405520,0.00744958,0.24639893,0.06866455,-0.48559570,0.00000000,-0.00000000,0.31000000,0.01100000,-0.00500000,-0.00100000,-0.99686867,-0.01972216,-0.00631728,0.07631531,-0.01937216,0.03630380,-0.01187758,-0.20078966,0.33721113,-0.13938333,-0.00443667,0.00060609,-0.04086943,0.06034561,0.02900566,0.01561141,0.01923154,0.01637741,0.01409503,-3.03493977,-2.23832989,14.69999981,0.51529306,0.00000000,0.00000000,5.00000000,0.09529500,0.00000000,1.00000000,100.00000000,30.00000000,354417344.00000000,0.00000000,0.00000000,119.00000000,0.34724125,0.15702234,9.79944611,0.01741939,0.05504205,-0.03796574,0.24850717,0.06375723,-0.49238655,0.01162330,-0.02178228,1.50000000,0.38964871,-0.65436071,13.49996471,0.99960297,0.02421181,0.01440583,0.00034893,0.00730542,-0.00817256,0.09182116,-0.07960706,-0.08893579,0.00737333,21177228.00000000,-0.00000000,-3146434217177513984.00000000,4267.56494141,-3211728715192991744.00000000,0.00000000,-0.00000000,0.00000000,75.03138733,-2594362831801417728.00000000,17729961695711069818766217105637376.00000000,0.00000000
-4.13259363,0.26082960,10.48343563,0.02234873,-0.02128450,-0.07662421,0.24774170,0.06744385,-0.48504639,0.00000000,-0.00000000,0.31000000,0.01100000,-0.00500000,-0.00100000,-0.99686831,-0.01973893,-0.00635170,0.07631283,-0.01963118,0.03673931,-0.01205787,-0.20032759,0.33682364,-0.13943604,-0.00443667,0.00060609,-0.04086943,0.06034561,0.02900566,0.01561141,0.01923154,0.01637741,0.01409503,-3.04837108,-2.26640081,14.69999981,0.51710075,0.00000000,0.00000000,5.00000000,0.09658800,0.00000000,1.00000000,100.00000000,30.00000000,354417344.00000000,0.00000000,0.00000000,119.00000000,0.30602628,0.16216452,9.78348637,0.01734524,0.05573686,-0.03796566,0.24872741,0.06436573,-0.49139085,0.01177871,-0.02204359,1.50000000,0.38919520,-0.65424550,13.50135231,0.99960345,0.02420508,0.01438761,0.00034839,0.00740387,-0.00828450,0.09309304,-0.07960280,-0.08892306,0.00747225,21177228.00000000,-0.00000000,-3146434217177513984.00000000,4267.56494141,-3211728715192991744.00000000,0.00000000,-0.00000000,0.00000000,75.03138733,-2594362831801417728.00000000,17729961695711069818766217105637376.00000000,0.00000000
-3.13474107,0.82556158,9.92109680,0.01596338,0.00319268,-0.09365182,0.24774170,0.06744385,-0.48504639,0.00000000,-0.00000000,0.31000000,0.01100000,-0.00500000,-0.00100000,-0.99686813,-0.01974807,-0.00637060,0.07631151,-0.01977266,0.03697730,-0.01215647,-0.20011356,0.33662188,-0.13947186,-0.00443667,0.00060609,-0.04086943,0.06034561,0.02900566,0.01561141,0.01923154,0.01637741,0.01409503,-3.06109881,-2.29346848,14.69999981,0.51901305,0.00000000,0.00000000,5.00000000,0.09729500,0.00000000,1.00000000,100.00000000,30.00000000,354417344.00000000,0.00000000,0.00000000,119.00000000,0.24963319,0.16775435,9.77248669,0.01725679,0.05597094,-0.03808202,0.24891734,0.06493180,-0.49046272,0.01186360,-0.02218638,1.50000000,0.38901660,-0.65420055,13.50212669,0.99960363,0.02420203,0.01438019,0.00034817,0.00745770,-0.00834572,0.09378850,-0.07960048,-0.08891612,0.00752633,21177228.00000000,-0.00000000,-3146434217177513984.00000000,4267.56494141,-3211728715192991744.00000000,0.00000000,-0.00000000,0.00000000,75.03138733,-2594362831801417728.00000000,17729961695711069818766217105637376.00000000,0.00000000
-0.90213543,-0.06700210,10.75623035,0.00532113,0.01170648,-0.00532113,0.24774170,0.06744385,-0.48504639,0.00000000,-0.00000000,0.31000000,0.01100000,-0.00500000,-0.00100000,-0.99686784,-0.01976096,-0.00639732,0.07630974,-0.01997274,0.03731399,-0.01229614,-0.19987558,0.33635467,-0.13952677,-0.00443667,0.00060609,-0.04086943,0.06034561,0.02900566,0.01561141,0.01923154,0.01637741,0.01409503,-3.07317805,-2.31944752,14.69999981,0.52105224,0.00000000,0.00000000,5.00000000,0.09829600,0.00000000,1.00000000,100.00000000,30.00000000,354417344.00000000,0.00000000,0.00000000,119.00000000,0.18214864,0.17609969,9.76694202,0.01715731,0.05586428,-0.03828073,0.24908052,0.06545506,-0.48959950,0.01198364,-0.02238840,1.50000000,0.38888049,-0.65416992,13.50323296,0.99960381,0.02419893,0.01437399,0.00034797,0.00753390,-0.00843241,0.09477320,-0.07959720,-0.08890632,0.00760291,21177228.00000000,-0.00000000,-3146434217177513984.00000000,4267.56494141,-3211728715192991744.00000000,0.00000000,-0.00000000,0.00000000,75.03138733,-2594362831801417728.00000000,17729961695711069818766217105637376.00000000,0.00000000
-0.15314765,-1.21560955,11.10081196,0.01383493,-0.00532113,0.07981689,0.24676514,0.06750488,-0.48516846,0.00000000,-0.00000000,0.31000000,0.01100000,-0.00500000,-0.00100000,-0.99686748,-0.01977749,-0.00643153,0.07630745,-0.02023050,0.03774781,-0.01247636,-0.19965604,0.33603323,-0.13959356,-0.00443667,0.00060609,-0.04086943,0.06034561,0.02900566,0.01561141,0.01923154,0.01637741,0.01409503,-3.08465147,-2.34426618,14.69999981,0.52249008,0.00000000,0.00000000,5.00000000,0.09958700,0.00000000,1.00000000,100.00000000,30.00000000,354417344.00000000,0.00000000,0.00000000,119.00000000,0.11177497,0.18389198,9.76867580,0.01703113,0.05546566,-0.03826827,0.24921837,0.06593644,-0.48879921,0.01213830,-0.02264869,1.50000000,0.38886198,-0.65417165,13.50465012,0.99960387,0.02419646,0.01437181,0.00034788,0.00763218,-0.00854423,0.09604323,-0.07959300,-0.08889373,0.00770166,21177228.00000000,-0.00000000,-3146434217177513984.00000000,4267.56494141,-3211728715192991744.00000000,0.00000000,-0.00000000,0.00000000,75.03138733,-2594362831801417728.00000000,17729961695711069818766217105637376.00000000,0.00000000
1.67026663,-0.72984427,10.61983299,0.00319268,-0.02660563,0.02660563,0.24676514,0.06750488,-0.48516846,0.00000000,-0.00000000,0.31000000,0.01100000,-0.00500000,-0.00100000,-0.99686730,-0.01978650,-0.00645007,0.07630607,-0.02037200,0.03798594,-0.01257535,-0.19958134,0.33586526,-0.13962409,-0.00443667,0.00060609,-0.04086943,0.06034561,0.02900566,0.01561141,0.01923154,0.01637741,0.01409503,-3.09551048,-2.36777115,14.69999981,0.52288830,0.00000000,0.00000000,5.00000000,0.10029600,0.00000000,1.00000000,100.00000000,30.00000000,354417344.00000000,0.00000000,0.00000000,119.00000000,0.04548860,0.18646091,9.77621937,0.01688486,0.05476167,-0.03791026,0.24933149,0.06637694,-0.48805985,0.01222320,-0.02279156,1.50000000,0.38893431,-0.65418792,13.50541401,0.99960387,0.02419569,0.01437367,0.00034792,0.00768617,-0.00860566,0.09674072,-0.07959070,-0.08888683,0.00775590,21177228.00000000,-0.00000000,-3146434217177513984.00000000,4267.56494141,-3211728715192991744.00000000,0.00000000,-0.00000000,0.00000000,75.03138733,-2594362831801417728.00000000,17729961695711069818766217105637376.00000000,0.00000000
2.20389056,-0.11725368,9.98570538,-0.01596338,-0.04576168,-0.07130308,0.24676514,0.06750488,-0.48516846,0.00000000,-0.00000000,0.31000000,0.01100000,-0.00500000,-0.00100000,-0.99620336,-0.00980210,0.00192946,0.08648237,0.00013373,0.00066505,-0.00030465,0.00545249,0.00799877,-0.00381605,-0.00443697,0.00060609,-0.04086961,0.06034629,0.02900582,0.01561028,0.01923197,0.01637782,0.01409530,-3.10578179,-2.38987517,14.69999981,0.52286315,0.00000000,0.00000000,5.00000000,0.10129600,0.00000000,1.00000000,100.00000000,30.00000000,354417344.00000000,0.00000000,0.00000000,119.00000000,-0.00954893,0.18354882,9.78570271,0.01668017,0.05372550,-0.03740967,0.24942085,0.06677834,-0.48737940,-0.00008024,-0.00039903,1.50000000,-0.00227550,-0.02372583,13.20753860,0.99999958,0.00089819,-0.00008614,-0.00000008,0.00768341,-0.00860979,0.09764302,-0.07959960,-0.08888490,0.00784238,21177228.00000000,-0.00000000,-3146434217177513984.00000000,4267.56494141,-3211728715192991744.00000000,0.00000000,-0.00000000,0.00000000,75.03138733,-2594362831801417728.00000000,17729961695711069818766217105637376.00000000,0.00000000
-0.38047621,0.79206055,9.81341457,-0.00851380,-0.07343154,-0.08620223,0.24731445,0.06793213,-0.48577881,0.00000000,-0.00000000,0.31000000,0.01100000,-0.00500000,-0.00100000,-0.99620348,-0.00981836,0.00189740,0.08647951,0.00014054,0.00067534,-0.00030962,0.00527408,0.00797056,-0.00384333,-0.00443697,0.00060609,-0.04086961,0.06034629,0.02900582,0.01561028,0.01923197,0.01637782,0.01409530,-3.11546731,-2.41046357,14.69999981,0.52294618,0.00000000,0.00000000,5.00000000,0.10258700,0.00000000,1.00000000,100.00000000,30.00000000,354417344.00000000,0.00000000,0.00000000,119.00000000,-0.05164623,0.17821187,9.79520130,0.01636831,0.05230534,-0.03697781,0.24948798,0.06714351,-0.48675656,-0.00008432,-0.00040520,1.50000000,-0.00196514,-0.02369155,13.20876312,0.99999964,0.00089681,-0.00007439,-0.00000007,0.00767999,-0.00861518,0.09880789,-0.07961112,-0.08888245,0.00795402,21177228.00000000,-0.00000000,-3146434217177513984.00000000,4267.56494141,-3211728715192991744.00000000,0.00000000,-0.00000000,0.00000000,75.03138733,-2594362831801417728.00000000,17729961695711069818766217105637376.00000000,0.00000000
-1.03374672,1.33286321,9.36354351,0.00425690,-0.10961519,-0.01809183,0.24731445,0.06793213,-0.48577881,0.00000000,-0.00000000,0.31000000,0.01100000,-0.00500000,-0.00100000,-0.99620360,-0.00982709,0.00188046,0.08647781,0.00014419,0.00068098,-0.00031235,0.00515165,0.00795650,-0.00385169,-0.00443697,0.00060609,-0.04086961,0.06034629,0.02900582,0.01561028,0.01923197,0.01637782,0.01409530,-3.12452650,-2.42933059,14.69999981,0.52291888,0.00000000,0.00000000,5.00000000,0.10329600,0.00000000,1.00000000,100.00000000,30.00000000,354417344.00000000,0.00000000,0.00000000,119.00000000,-0.08629942,0.17458709,9.80468273,0.01596635,0.05038894,-0.03656770,0.24953470,0.06747565,-0.48619047,-0.00008652,-0.00040859,1.50000000,-0.00175054,-0.02367529,13.20942211,0.99999964,0.00089615,-0.00006626,-0.00000006,0.00767816,-0.00861814,0.09944763,-0.07961745,-0.08888111,0.00801533,21177228.00000000,-0.00000000,-3146434217177513984.00000000,4267.56494141,-3211728715192991744.00000000,0.00000000,-0.00000000,0.00000000,75.03138733,-2594362831801417728.00000000,17729961695711069818766217105637376.00000000,0.00000000
-0.68437856,1.01460326,8.38483429,0.00106423,-0.09258759,0.00000000,0.24731445,0.06793213,-0.48577881,0.00000000,-0.00000000,0.31000000,0.01100000,-0.00500000,-0.00100000,-0.99620372,-0.00983907,0.00185779,0.08647517,0.00014914,0.00068892,-0.00031620,0.00494852,0.00794268,-0.00385606,-0.00443697,0.00060609,-0.04086961,0.06034629,0.02900582,0.01561028,0.01923197,0.01637782,0.01409530,-3.13298345,-2.44627714,14.69999981,0.52265084,0.00000000,0.00000000,5.00000000,0.10429600,0.00000000,1.00000000,100.00000000,30.00000000,354417344.00000000,0.00000000,0.00000000,119.00000000,-0.11776981,0.17560944,9.81213760,0.01550932,0.04789651,-0.03608289,0.24956326,0.06777671,-0.48567909,-0.00008948,-0.00041335,1.50000000,-0.00139273,-0.02366316,13.21033382,0.99999964,0.00089563,-0.00005271,-0.00000005,0.00767567,-0.00862231,0.10034995,-0.07962639,-0.08887923,0.00810181,21177228.00000000,-0.00000000,-3146434217177513984.00000000,4267.56494141,-3211728715192991744.00000000,0.00000000,-0.00000000,0.00000000,75.03138733,-2594362831801417728.00000000,17729961695711069818766217105637376.00000000,0.00000000
-1.74684048,0.13639714,8.33458233,-0.01489915,-0.05214703,-0.06811041,0.24621582,0.06811523,-0.48516846,0.00000000,-0.00000000,0.31000000,0.01100000,-0.00500000,-0.00100000,-0.99620396,-0.00985404,0.00183039,0.08647152,0.00015515,0.00069918,-0.00032119,0.00464751,0.00793805,-0.00385966,-0.00443697,0.00060609,-0.04086961,0.06034629,0.02900582,0.01561028,0.01923197,0.01637782,0.01409530,-3.14085364,-2.46114349,14.69999981,0.52250588,0.00000000,0.00000000,5.00000000,0.10558800,0.00000000,1.00000000,100.00000000,30.00000000,354417344.00000000,0.00000000,0.00000000,119.00000000,-0.14949471,0.18082744,9.81367779,0.01498733,0.04491526,-0.03566746,0.24957515,0.06804819,-0.48521900,-0.00009309,-0.00041951,1.50000000,-0.00086043,-0.02367129,13.21150780,0.99999964,0.00089586,-0.00003256,-0.00000003,0.00767265,-0.00862770,0.10151574,-0.07963797,-0.08887681,0.00821353,21177228.00000000,-0.00000000,-3146434217177513984.00000000,4267.56494141,-3211728715192991744.00000000,0.00000000,-0.00000000,0.00000000,75.03138733,-2594362831801417728.00000000,17729961695711069818766217105637376.00000000,0.00000000
-1.20364487,-0.39004794,9.33243561,-0.01915605,-0.03299098,-0.08939491,0.24621582,0.06811523,-0.48516846,0.00000000,-0.00000000,0.31000000,0.01100000,-0.00500000,-0.00100000,-0.99620408,-0.00986190,0.00181656,0.08646949,0.00015829,0.00070478,-0.00032392,0.00445889,0.00794437,-0.00386536,-0.00443697,0.00060609,-0.04086961,0.06034629,0.02900582,0.01561028,0.01923197,0.01637782,0.01409530,-3.14809608,-2.47385144,14.69999981,0.52291209,0.00000000,0.00000000,5.00000000,0.10629400,0.00000000,1.00000000,100.00000000,30.00000000,354417344.00000000,0.00000000,0.00000000,119.00000000,-0.18562400,0.18731365,9.80831242,0.01437599,0.04163244,-0.03553329,0.24957070,0.06829205,-0.48480636,-0.00009498,-0.00042287,1.50000000,-0.00052590,-0.02369168,13.21215725,0.99999964,0.00089659,-0.00001990,-0.00000002,0.00767106,-0.00863065,0.10215278,-0.07964430,-0.08887548,0.00827457,21177228.00000000,-0.00000000,-3146434217177513984.00000000,4267.56494141,-3211728715192991744.00000000,0.00000000,-0.00000000,0.00000000,75.03138733,-2594362831801417728.00000000,17729961695711069818766217105637376.00000000,0.00000000
