accel_x,accel_y,accel_z,gyro_yaw,gyro_pitch,gyro_roll,mag_x,mag_y,mag_z,gps_pos_north,gps_pos_west,gps_pos_up,gps_vel_north,gps_vel_west,gps_vel_up,state_q_vec_w,state_q_vec_x,state_q_vec_y,state_q_vec_z,state_pos_north,state_pos_west,state_pos_up,state_vel_north,state_vel_west,state_vel_up,gyro_bias_yaw,gyro_bias_pitch,gyro_bias_roll,accel_bias_x,accel_bias_y,accel_bias_z,mag_bias_x,mag_bias_y,mag_bias_z,gimbal_yaw_raw,gimbal_pitch_raw,thrust_N,roll_rad_sec_squared,target_pos_north,target_pos_west,target_pos_up,elapsed_time,GND_flag,flight_armed,thrust_perc,diffy_perc,rtk_status,gps_hor_prec,gps_ver_prec,gps_sat_count,filtered_accel_x,filtered_accel_y,filtered_accel_z,filtered_gyro_x,filtered_gyro_y,filtered_gyro_z,filtered_mag_x,filtered_mag_y,filtered_mag_z,velocity_target_x,velocity_target_y,velocity_target_z,accel_target_x,accel_target_y,accel_target_z,attitude_target[0],attitude_target[1],attitude_target[2],attitude_target[3],velocity_integrator_x,velocity_integrator_y,velocity_integrator_z,attitude_integrator_x,attitude_integrator_y,attitude_integrator_z,posCovNN,posCovNE,posCovND,posCovEE,posCovED,posCovDD,velCovNN,velCovNE,velCovND,velCovEE,velCovED,velCovDD
0.09093142,0.14357592,9.79427147,-0.00744958,-0.00106423,-0.03618366,0.25003052,0.05334473,-0.48535156,0.00000000,0.00000000,0.31000000,0.00000000,0.00000000,0.00000000,0.99880844,0.00617625,0.00211882,-0.04836497,-0.00063826,0.00178487,0.00001345,-0.25254828,0.30965072,0.00385451,-0.00792999,0.00022295,-0.04076010,0.11894131,0.03005705,-0.00336817,0.02939495,0.01836376,0.01619054,0.00000000,0.00000000,0.00000000,0.00000000,0.00000000,0.00000000,0.00000000,0.00121100,0.00000000,1.00000000,0.00000000,0.00000000,-1191183488.00000000,0.00000000,-0.00012206,207.00000000,0.99889261,0.99895674,1.01071215,0.99877280,0.99878055,0.99873787,0.99908644,0.99884683,0.99819070,0.00038295,-0.00107092,-0.00000538,0.45537877,-0.55940795,9.80150032,0.99932534,0.02849441,0.02316421,0.00066050,0.00010256,-0.00010903,-0.00000700,-0.07997437,-0.08997288,0.00005923,22217612.00000000,-0.00000000,3146443013270536192.00000000,-4283.58056641,-3212832624867278848.00000000,2268976521773318144.00000000,-15326346240.00000000,0.00000000,75.03144836,-40536884887158784.00000000,17729961695711069818766217105637376.00000000,0.00000000
0.09811021,0.12203954,9.81341457,-0.00638535,0.00212845,-0.03831211,0.25003052,0.05334473,-0.48535156,0.00000000,-0.00000000,0.31000000,0.01600000,0.00700000,-0.00800000,0.99884349,0.00704728,0.00289787,-0.04747254,-0.00122090,0.00295050,0.00001439,-0.25584060,0.32745320,-0.00649422,-0.00792999,0.00022295,-0.04076010,0.11894131,0.03005705,-0.00336817,0.02939495,0.01836376,0.01619054,-0.09058025,-0.08515543,13.00192642,0.27645001,0.00000000,0.00000000,1.50000000,0.00289300,0.00000000,1.00000000,79.32945251,17.64500046,-1191183488.00000000,0.00000000,-0.00012206,207.00000000,0.99474508,0.99501497,1.05094218,0.99416810,0.99420756,0.99399787,0.99565750,0.99451870,0.99139971,0.00073254,-0.00177030,0.59999424,0.46205071,-0.59284055,11.13638020,0.99943227,0.02658336,0.02069513,0.00055046,0.00021907,-0.00023832,0.00060507,-0.07994321,-0.08994085,0.00013984,22217612.00000000,-0.00000000,3146443013270536192.00000000,-4283.58056641,-3212832624867278848.00000000,2268976521773318144.00000000,-15326346240.00000000,0.00000000,75.03144836,-40536884887158784.00000000,17729961695711069818766217105637376.00000000,0.00000000
0.09571729,0.12443247,9.80862904,-0.00744958,0.00106423,-0.03937633,0.24966431,0.05413818,-0.48480225,0.00000000,-0.00000000,0.31000000,0.01600000,0.00700000,-0.00800000,0.99886107,0.00752611,0.00332516,-0.04699981,-0.00145520,0.00325215,0.00000110,-0.25495759,0.32823837,-0.01445665,-0.00792999,0.00022295,-0.04076010,0.11894131,0.03005705,-0.00336817,0.02939495,0.01836376,0.01619054,-0.17813769,-0.16707835,13.00238705,0.27014169,0.00000000,0.00000000,1.50000000,0.00381200,0.00000000,1.00000000,79.33079529,17.01416779,-1191183488.00000000,0.00000000,-0.00012206,207.00000000,0.98698920,0.98758447,1.12634218,0.98554337,0.98564726,0.98511243,0.98923385,0.98641199,0.97867906,0.00087312,-0.00195129,0.59999961,0.46077946,-0.59465188,11.15424824,0.99943310,0.02662183,0.02060515,0.00054886,0.00028419,-0.00031056,0.00094388,-0.07992658,-0.08992383,0.00018345,22217612.00000000,-0.00000000,3146443013270536192.00000000,-4283.58056641,-3212832624867278848.00000000,2268976521773318144.00000000,-15326346240.00000000,0.00000000,75.03144836,-40536884887158784.00000000,17729961695711069818766217105637376.00000000,0.00000000
0.10050315,0.14357592,9.81102180,-0.00744958,0.00212845,-0.03937633,0.24966431,0.05413818,-0.48480225,0.00000000,-0.00000000,0.31000000,0.01600000,0.00700000,-0.00800000,0.99887002,0.00777769,0.00354965,-0.04675143,-0.00157965,0.00341286,-0.00000801,-0.25449333,0.32865050,-0.01863993,-0.00792999,0.00022295,-0.04076010,0.11894131,0.03005705,-0.00336817,0.02939495,0.01836376,0.01619054,-0.26277387,-0.24592617,13.00264740,0.26456213,0.00000000,0.00000000,1.50000000,0.00430100,0.00000000,1.00000000,79.33155823,16.45621300,-1191183488.00000000,0.00000000,-0.00012206,207.00000000,0.97574013,0.97678202,1.23585820,0.97301853,0.97322136,0.97220272,0.97990507,0.97464234,0.96020889,0.00094779,-0.00204772,0.60000318,0.46011296,-0.59560597,11.16364098,0.99943352,0.02664209,0.02055803,0.00054802,0.00031895,-0.00034916,0.00112539,-0.07991784,-0.08991491,0.00020654,22217612.00000000,-0.00000000,3146443013270536192.00000000,-4283.58056641,-3212832624867278848.00000000,2268976521773318144.00000000,-15326346240.00000000,0.00000000,75.03144836,-40536884887158784.00000000,17729961695711069818766217105637376.00000000,0.00000000
0.10768194,0.13639714,9.82059383,-0.00851380,0.00212845,-0.04256901,0.24966431,0.05413818,-0.48480225,0.00000000,-0.00000000,0.31000000,0.01600000,0.00700000,-0.00800000,0.99887860,0.00802396,0.00376941,-0.04650826,-0.00170337,0.00357311,-0.00001908,-0.25403836,0.32905340,-0.02273492,-0.00792999,0.00022295,-0.04076010,0.11894131,0.03005705,-0.00336817,0.02939495,0.01836376,0.01619054,-0.34458381,-0.32185009,13.00291824,0.25969702,0.00000000,0.00000000,1.50000000,0.00478800,0.00000000,1.00000000,79.33234406,15.96970177,-1191183488.00000000,0.00000000,-0.00012206,207.00000000,0.96074641,0.96239150,1.38209414,0.95629430,0.95663601,0.95495886,0.96744978,0.95893127,0.93555164,0.00102202,-0.00214387,0.60000765,0.45946226,-0.59654278,11.17284107,0.99943393,0.02666201,0.02051206,0.00054720,0.00035362,-0.00038770,0.00130736,-0.07990924,-0.08990616,0.00022941,22217612.00000000,-0.00000000,3146443013270536192.00000000,-4283.58056641,-3212832624867278848.00000000,2268976521773318144.00000000,-15326346240.00000000,0.00000000,75.03144836,-40536884887158784.00000000,17729961695711069818766217105637376.00000000,0.00000000
0.09811021,0.12682541,9.82059383,-0.00851380,0.00319268,-0.05001858,0.24966431,0.05413818,-0.48480225,0.00000000,-0.00000000,0.31000000,0.01600000,0.00700000,-0.00800000,0.99888718,0.00827430,0.00399281,-0.04626107,-0.00183168,0.00373982,-0.00003269,-0.25357515,0.32946217,-0.02689747,-0.00792999,0.00022295,-0.04076010,0.11894131,0.03005705,-0.00336817,0.02939495,0.01836376,0.01619054,-0.42365831,-0.39499485,13.00321198,0.25554329,0.00000000,0.00000000,1.50000000,0.00529400,0.00000000,1.00000000,79.33320618,15.55432892,-1191183488.00000000,0.00000000,-0.00012206,207.00000000,0.94208550,0.94445789,1.56441474,0.93544477,0.93596947,0.93344271,0.95192456,0.93935007,0.90481931,0.00109901,-0.00224389,0.60001308,0.45880318,-0.59749871,11.18220139,0.99943429,0.02668236,0.02046549,0.00054638,0.00038969,-0.00042785,0.00149769,-0.07990042,-0.08989722,0.00025305,22217612.00000000,-0.00000000,3146443013270536192.00000000,-4283.58056641,-3212832624867278848.00000000,2268976521773318144.00000000,-15326346240.00000000,0.00000000,75.03144836,-40536884887158784.00000000,17729961695711069818766217105637376.00000000,0.00000000
0.07178796,0.13879006,9.82298660,-0.00851380,0.00000000,-0.04150478,0.24484253,0.05847168,-0.48529053,0.00000000,-0.00000000,0.31000000,0.01600000,0.00700000,-0.00800000,0.99890774,0.00889708,0.00454857,-0.04564608,-0.00215780,0.00416679,-0.00008082,-0.25241968,0.33047545,-0.03725201,-0.00792999,0.00022295,-0.04076010,0.11894131,0.03005705,-0.00336817,0.02939495,0.01836376,0.01619054,-0.50007021,-0.46550140,13.00398636,0.25209993,0.00000000,0.00000000,1.50000000,0.00658600,0.00000000,1.00000000,79.33545685,15.20999241,-1191183488.00000000,0.00000000,-0.00012206,207.00000000,0.92035550,0.92358172,1.77656150,0.91118634,0.91193241,0.90838438,0.93385768,0.91657853,0.86906940,0.00129468,-0.00250007,0.60003233,0.45716766,-0.59988666,11.20551777,0.99943531,0.02673321,0.02035011,0.00054433,0.00048184,-0.00053071,0.00199171,-0.07987861,-0.08987524,0.00031262,22217612.00000000,-0.00000000,3146443013270536192.00000000,-4283.58056641,-3212832624867278848.00000000,2268976521773318144.00000000,-15326346240.00000000,0.00000000,75.03144836,-40536884887158784.00000000,17729961695711069818766217105637376.00000000,0.00000000
0.08375262,0.13639714,9.82537937,-0.00957803,0.00000000,-0.04256901,0.24484253,0.05847168,-0.48529053,0.00000000,-0.00000000,0.31000000,0.01600000,0.00700000,-0.00800000,0.99891818,0.00922845,0.00484429,-0.04531883,-0.00233608,0.00440115,-0.00011110,-0.25180307,0.33101249,-0.04276109,-0.00792999,0.00022295,-0.04076010,0.11894131,0.03005705,-0.00336817,0.02939495,0.01836376,0.01619054,-0.57391477,-0.53349155,13.00442028,0.24925928,0.00000000,0.00000000,1.50000000,0.00729400,0.00000000,1.00000000,79.33672333,14.92592812,-1191183488.00000000,0.00000000,-0.00012206,207.00000000,0.89639604,0.90064085,2.00989532,0.88450634,0.88549972,0.88081503,0.91397506,0.89155513,0.82975894,0.00140165,-0.00264069,0.60004443,0.45630103,-0.60116309,11.21793747,0.99943584,0.02676041,0.02028904,0.00054325,0.00053256,-0.00058739,0.00226477,-0.07986687,-0.08986346,0.00034503,22217612.00000000,-0.00000000,3146443013270536192.00000000,-4283.58056641,-3212832624867278848.00000000,2268976521773318144.00000000,-15326346240.00000000,0.00000000,75.03144836,-40536884887158784.00000000,17729961695711069818766217105637376.00000000,0.00000000
0.08375262,0.14836179,9.81820011,-0.00638535,0.00000000,-0.04150478,0.24484253,0.05847168,-0.48529053,0.00000000,-0.00000000,0.31000000,0.01600000,0.00700000,-0.00800000,0.99893212,0.00968158,0.00524871,-0.04487133,-0.00258704,0.00473289,-0.00016139,-0.25095654,0.33174300,-0.05029415,-0.00792999,0.00022295,-0.04076010,0.11894131,0.03005705,-0.00336817,0.02939495,0.01836376,0.01619054,-0.64526701,-0.59908420,13.00504875,0.24698754,0.00000000,0.00000000,1.50000000,0.00829400,0.00000000,1.00000000,79.33855438,14.69875336,-1191183488.00000000,0.00000000,-0.00012206,207.00000000,0.87085414,0.87627310,2.25818920,0.85611737,0.85737389,0.85147411,0.89280343,0.86495101,0.78793633,0.00155222,-0.00283973,0.60006458,0.45512009,-0.60291666,11.23494434,0.99943650,0.02679780,0.02020590,0.00054178,0.00060432,-0.00066773,0.00265499,-0.07985069,-0.08984731,0.00039036,22217612.00000000,-0.00000000,3146443013270536192.00000000,-4283.58056641,-3212832624867278848.00000000,2268976521773318144.00000000,-15326346240.00000000,0.00000000,75.03144836,-40536884887158784.00000000,17729961695711069818766217105637376.00000000,0.00000000
0.07657383,0.14118299,9.82777214,-0.00851380,-0.00212845,-0.04363323,0.24771118,0.05560303,-0.48571777,0.00000000,-0.00000000,0.31000000,0.01600000,0.00700000,-0.00800000,0.99894857,0.01024679,0.00575316,-0.04431313,-0.00290990,0.00516267,-0.00023851,-0.24989511,0.33264765,-0.05968949,-0.00792999,0.00022295,-0.04076010,0.11894131,0.03005705,-0.00336817,0.02939495,0.01836376,0.01619054,-0.71420062,-0.66239023,13.00587273,0.24524890,0.00000000,0.00000000,1.50000000,0.00958600,0.00000000,1.00000000,79.34095764,14.52488899,-1191183488.00000000,0.00000000,-0.00012206,207.00000000,0.84392172,0.85067701,2.51950169,0.82624435,0.82777041,0.82058799,0.87051147,0.83696914,0.74392641,0.00174594,-0.00309760,0.60009545,0.45365116,-0.60511351,11.25619316,0.99943733,0.02684463,0.02010267,0.00053995,0.00069725,-0.00077204,0.00316645,-0.07983043,-0.08982725,0.00044821,22217612.00000000,-0.00000000,3146443013270536192.00000000,-4283.58056641,-3212832624867278848.00000000,2268976521773318144.00000000,-15326346240.00000000,0.00000000,75.03144836,-40536884887158784.00000000,17729961695711069818766217105637376.00000000,0.00000000
0.08375262,0.12682541,9.82059383,-0.00851380,0.00106423,-0.04150478,0.24771118,0.05560303,-0.48571777,0.00000000,-0.00000000,0.31000000,0.01600000,0.00700000,-0.00800000,0.99895692,0.01054486,0.00601920,-0.04401875,-0.00308643,0.00539852,-0.00028428,-0.24933238,0.33312121,-0.06464375,-0.00792999,0.00022295,-0.04076010,0.11894131,0.03005705,-0.00336817,0.02939495,0.01836376,0.01619054,-0.78080881,-0.72350627,13.00632954,0.24397731,0.00000000,0.00000000,1.50000000,0.01029400,0.00000000,1.00000000,79.34229279,14.39772987,-1191183488.00000000,0.00000000,-0.00012206,207.00000000,0.81554329,0.82379186,2.79414392,0.79485035,0.79665095,0.78812516,0.84707767,0.80757004,0.69767475,0.00185186,-0.00323911,0.60011375,0.45288000,-0.60627806,11.26741600,0.99943775,0.02686948,0.02004850,0.00053900,0.00074839,-0.00082949,0.00344884,-0.07981952,-0.08981650,0.00047970,22217612.00000000,-0.00000000,3146443013270536192.00000000,-4283.58056641,-3212832624867278848.00000000,2268976521773318144.00000000,-15326346240.00000000,0.00000000,75.03144836,-40536884887158784.00000000,17729961695711069818766217105637376.00000000,0.00000000
0.08853849,0.13400421,9.80384254,-0.00638535,0.00000000,-0.03724788,0.24771118,0.05560303,-0.48571777,0.00000000,-0.00000000,0.31000000,0.01600000,0.00700000,-0.00800000,0.99896783,0.01094863,0.00637961,-0.04361996,-0.00333499,0.00573228,-0.00035563,-0.24856490,0.33375651,-0.07135438,-0.00792999,0.00022295,-0.04076010,0.11894131,0.03005705,-0.00336817,0.02939495,0.01836376,0.01619054,-0.84516019,-0.78253186,13.00698090,0.24311259,0.00000000,0.00000000,1.50000000,0.01129400,0.00000000,1.00000000,79.34419250,14.31125927,-1191183488.00000000,0.00000000,-0.00012206,207.00000000,0.78581929,0.79566288,3.08130550,0.76202577,0.76410687,0.75419217,0.82257062,0.77683413,0.64931148,0.00200100,-0.00343937,0.60014224,0.45183930,-0.60786343,11.28264427,0.99943835,0.02690335,0.01997543,0.00053771,0.00082072,-0.00091089,0.00385174,-0.07980446,-0.08980174,0.00052379,22217612.00000000,-0.00000000,3146443013270536192.00000000,-4283.58056641,-3212832624867278848.00000000,2268976521773318144.00000000,-15326346240.00000000,0.00000000,75.03144836,-40536884887158784.00000000,17729961695711069818766217105637376.00000000,0.00000000
0.10528901,0.14836179,9.79666424,-0.00744958,0.00000000,-0.04469746,0.24899292,0.05615234,-0.48547363,0.00000000,-0.00000000,0.31000000,0.01600000,0.00700000,-0.00800000,0.99898076,0.01144736,0.00682477,-0.04312740,-0.00365490,0.00616449,-0.00045853,-0.24760865,0.33453122,-0.07964206,-0.00792999,0.00022295,-0.04076010,0.11894131,0.03005705,-0.00336817,0.02939495,0.01836376,0.01619054,-0.90732336,-0.83956134,13.00782585,0.24260673,0.00000000,0.00000000,1.50000000,0.01258600,0.00000000,1.00000000,79.34664917,14.26067257,-1191183488.00000000,0.00000000,-0.00012206,207.00000000,0.75514811,0.76664293,3.37761545,0.72815454,0.73051548,0.71918416,0.79727727,0.74511528,0.59939599,0.00219294,-0.00369870,0.60018343,0.45055726,-0.60983032,11.30149555,0.99943900,0.02694534,0.01988553,0.00053612,0.00091439,-0.00101652,0.00437874,-0.07978558,-0.08978337,0.00058011,22217612.00000000,-0.00000000,3146443013270536192.00000000,-4283.58056641,-3212832624867278848.00000000,2268976521773318144.00000000,-15326346240.00000000,0.00000000,75.03144836,-40536884887158784.00000000,17729961695711069818766217105637376.00000000,0.00000000
0.11964661,0.15075472,9.80623627,-0.00744958,0.00000000,-0.04150478,0.24899292,0.05615234,-0.48547363,0.00000000,-0.00000000,0.31000000,0.01600000,0.00700000,-0.00800000,0.99898720,0.01170788,0.00705732,-0.04287010,-0.00382985,0.00640162,-0.00051798,-0.24710472,0.33493072,-0.08397081,-0.00792999,0.00022295,-0.04076010,0.11894131,0.03005705,-0.00336817,0.02939495,0.01836376,0.01619054,-0.96738881,-0.89467663,13.00828934,0.24244332,0.00000000,0.00000000,1.50000000,0.01329400,0.00000000,1.00000000,79.34799957,14.24433136,-1191183488.00000000,0.00000000,-0.00012206,207.00000000,0.72407466,0.73721957,3.67848206,0.69375873,0.69639635,0.68362826,0.77159524,0.71290129,0.54870051,0.00229791,-0.00384097,0.60020721,0.44989061,-0.61086375,11.31136131,0.99943930,0.02696743,0.01983878,0.00053530,0.00096591,-0.00107467,0.00466938,-0.07977539,-0.08977351,0.00061080,22217612.00000000,-0.00000000,3146443013270536192.00000000,-4283.58056641,-3212832624867278848.00000000,2268976521773318144.00000000,-15326346240.00000000,0.00000000,75.03144836,-40536884887158784.00000000,17729961695711069818766217105637376.00000000,0.00000000
0.08614556,0.15554059,9.80144978,-0.00851380,0.00212845,-0.04044056,0.24899292,0.05615234,-0.48547363,0.00000000,-0.00000000,0.31000000,0.01600000,0.00700000,-0.00800000,0.99899548,0.01205775,0.00736961,-0.04252457,-0.00407627,0.00673708,-0.00060777,-0.24642055,0.33545864,-0.08978331,-0.00792999,0.00022295,-0.04076010,0.11894131,0.03005705,-0.00336817,0.02939495,0.01836376,0.01619054,-1.02541804,-0.94796425,13.00894547,0.24260330,0.00000000,0.00000000,1.50000000,0.01429400,0.00000000,1.00000000,79.34991455,14.26033020,-1191183488.00000000,0.00000000,-0.00012206,207.00000000,0.69297439,0.70775080,3.98036027,0.65924120,0.66215754,0.64794338,0.74583083,0.68057168,0.49782443,0.00244576,-0.00404225,0.60024309,0.44899809,-0.61225861,11.32464218,0.99943972,0.02699728,0.01977620,0.00053420,0.00103877,-0.00115702,0.00508340,-0.07976132,-0.08975997,0.00065379,22217612.00000000,-0.00000000,3146443013270536192.00000000,-4283.58056641,-3212832624867278848.00000000,2268976521773318144.00000000,-15326346240.00000000,0.00000000,75.03144836,-40536884887158784.00000000,17729961695711069818766217105637376.00000000,0.00000000
0.07178796,0.14357592,9.79905701,-0.00744958,0.00000000,-0.04363323,0.25192261,0.05633545,-0.48516846,0.00000000,-0.00000000,0.31000000,0.01600000,0.00700000,-0.00800000,0.99900526,0.01248641,0.00775226,-0.04210122,-0.00439355,0.00717131,-0.00073297,-0.24557105,0.33609241,-0.09690409,-0.00792999,0.00022295,-0.04076010,0.11894131,0.03005705,-0.00336817,0.02939495,0.01836376,0.01619054,-1.08147013,-0.99950737,13.00979328,0.24305007,0.00000000,0.00000000,1.50000000,0.01558600,0.00000000,1.00000000,79.35238647,14.30500603,-1191183488.00000000,0.00000000,-0.00012206,207.00000000,0.66191590,0.67837238,4.28177071,0.62476856,0.62796777,0.61230493,0.72011107,0.64828479,0.44701508,0.00263613,-0.00430279,0.60029322,0.44790599,-0.61397517,11.34095860,0.99944025,0.02703398,0.01969970,0.00053286,0.00113310,-0.00126382,0.00562386,-0.07974362,-0.08974307,0.00070880,22217612.00000000,-0.00000000,3146443013270536192.00000000,-4283.58056641,-3212832624867278848.00000000,2268976521773318144.00000000,-15326346240.00000000,0.00000000,75.03144836,-40536884887158784.00000000,17729961695711069818766217105637376.00000000,0.00000000
0.06460917,0.13639714,9.80862904,-0.00744958,0.00106423,-0.04150478,0.25192261,0.05633545,-0.48516846,0.00000000,-0.00000000,0.31000000,0.01600000,0.00700000,-0.00800000,0.99901015,0.01270854,0.00795055,-0.04188186,-0.00456710,0.00740949,-0.00080419,-0.24512504,0.33641416,-0.10059352,-0.00792999,0.00022295,-0.04076010,0.11894131,0.03005705,-0.00336817,0.02939495,0.01836376,0.01619054,-1.13562822,-1.04937553,13.01025581,0.24375066,0.00000000,0.00000000,1.50000000,0.01629400,0.00000000,1.00000000,79.35373688,14.37506580,-1191183488.00000000,0.00000000,-0.00012206,207.00000000,0.63085395,0.64908254,4.58250904,0.59036547,0.59384716,0.57673323,0.69445688,0.61606538,0.39630729,0.00274026,-0.00444570,0.60032171,0.44734249,-0.61487031,11.34943581,0.99944049,0.02705315,0.01966022,0.00053217,0.00118495,-0.00132257,0.00592161,-0.07973406,-0.08973398,0.00073878,22217612.00000000,-0.00000000,3146443013270536192.00000000,-4283.58056641,-3212832624867278848.00000000,2268976521773318144.00000000,-15326346240.00000000,0.00000000,75.03144836,-40536884887158784.00000000,17729961695711069818766217105637376.00000000,0.00000000
0.06700210,0.14836179,9.80623627,-0.00957803,0.00000000,-0.04363323,0.25192261,0.05633545,-0.48516846,0.00000000,-0.00000000,0.31000000,0.01600000,0.00700000,-0.00800000,0.99901640,0.01300430,0.00821458,-0.04158981,-0.00481162,0.00774633,-0.00090969,-0.24452184,0.33683166,-0.10550538,-0.00792999,0.00022295,-0.04076010,0.11894131,0.03005705,-0.00336817,0.02939495,0.01836376,0.01619054,-1.18794703,-1.09764075,13.01090527,0.24468829,0.00000000,0.00000000,1.50000000,0.01729400,0.00000000,1.00000000,79.35562897,14.46882820,-1191183488.00000000,0.00000000,-0.00012206,207.00000000,0.59982061,0.61993086,4.88207817,0.55609041,0.55985355,0.54129153,0.66891372,0.58397126,0.34579024,0.00288697,-0.00464780,0.60036391,0.44659412,-0.61606878,11.36075783,0.99944085,0.02707884,0.01960776,0.00053125,0.00125827,-0.00140576,0.00634513,-0.07972083,-0.08972147,0.00078085,22217612.00000000,-0.00000000,3146443013270536192.00000000,-4283.58056641,-3212832624867278848.00000000,2268976521773318144.00000000,-15326346240.00000000,0.00000000,75.03144836,-40536884887158784.00000000,17729961695711069818766217105637376.00000000,0.00000000
0.09811021,0.13161127,9.80144978,-0.00744958,-0.00212845,-0.04044056,0.25405884,0.05603027,-0.48413086,0.00000000,-0.00000000,0.31000000,0.01600000,0.00700000,-0.00800000,0.99902368,0.01336341,0.00853517,-0.04123522,-0.00512658,0.00818215,-0.00105371,-0.24377574,0.33732250,-0.11146858,-0.00792999,0.00022295,-0.04076010,0.11894131,0.03005705,-0.00336817,0.02939495,0.01836376,0.01619054,-1.23847854,-1.14436936,13.01173973,0.24582984,0.00000000,0.00000000,1.50000000,0.01858600,0.00000000,1.00000000,79.35806274,14.58298302,-1191183488.00000000,0.00000000,-0.00012206,207.00000000,0.56900400,0.59107476,5.17884398,0.52212942,0.52617061,0.50617707,0.64362484,0.55217755,0.29574323,0.00307595,-0.00490929,0.60042149,0.44568619,-0.61753070,11.37455559,0.99944127,0.02711014,0.01954415,0.00053014,0.00135317,-0.00151357,0.00689699,-0.07970414,-0.08970581,0.00083474,22217612.00000000,-0.00000000,3146443013270536192.00000000,-4283.58056641,-3212832624867278848.00000000,2268976521773318144.00000000,-15326346240.00000000,0.00000000,75.03144836,-40536884887158784.00000000,17729961695711069818766217105637376.00000000,0.00000000
0.10768194,0.13161127,9.80384254,-0.00851380,0.00000000,-0.04150478,0.25405884,0.05603027,-0.48413086,0.00000000,-0.00000000,0.31000000,0.01600000,0.00700000,-0.00800000,0.99902725,0.01354780,0.00869978,-0.04105317,-0.00529890,0.00842114,-0.00113480,-0.24338552,0.33756623,-0.11453006,-0.00792999,0.00022295,-0.04076010,0.11894131,0.03005705,-0.00336817,0.02939495,0.01836376,0.01619054,-1.28729820,-1.18961501,13.01219273,0.24712542,0.00000000,0.00000000,1.50000000,0.01929400,0.00000000,1.00000000,79.35938263,14.71254158,-1191183488.00000000,0.00000000,-0.00012206,207.00000000,0.53869766,0.56268674,5.47054863,0.48874244,0.49305189,0.47165957,0.61878896,0.52092326,0.24654913,0.00317934,-0.00505269,0.60045391,0.44522208,-0.61828685,11.38166618,0.99944144,0.02712636,0.01951160,0.00052957,0.00140531,-0.00157284,0.00720071,-0.07969511,-0.08969737,0.00086415,22217612.00000000,-0.00000000,3146443013270536192.00000000,-4283.58056641,-3212832624867278848.00000000,2268976521773318144.00000000,-15326346240.00000000,0.00000000,75.03144836,-40536884887158784.00000000,17729961695711069818766217105637376.00000000,0.00000000
0.09093142,0.15554059,9.81580734,-0.00957803,0.00106423,-0.04256901,0.25405884,0.05603027,-0.48413086,0.00000000,-0.00000000,0.31000000,0.01600000,0.00700000,-0.00800000,0.99903184,0.01379114,0.00891703,-0.04081294,-0.00554176,0.00875902,-0.00125337,-0.24285930,0.33787462,-0.11856973,-0.00792999,0.00022295,-0.04076010,0.11894131,0.03005705,-0.00336817,0.02939495,0.01836376,0.01619054,-1.33445430,-1.23343778,13.01282787,0.24857226,0.00000000,0.00000000,1.50000000,0.02029400,0.00000000,1.00000000,79.36123657,14.85722542,-1191183488.00000000,0.00000000,-0.00012206,207.00000000,0.50911295,0.53493851,5.75542068,0.45613289,0.46070531,0.43794900,0.59456033,0.49039894,0.19851065,0.00332505,-0.00525541,0.60050136,0.44461086,-0.61929071,11.39108849,0.99944168,0.02714790,0.01946869,0.00052883,0.00147903,-0.00165672,0.00763216,-0.07968257,-0.08968572,0.00090544,22217612.00000000,-0.00000000,3146443013270536192.00000000,-4283.58056641,-3212832624867278848.00000000,2268976521773318144.00000000,-15326346240.00000000,0.00000000,75.03144836,-40536884887158784.00000000,17729961695711069818766217105637376.00000000,0.00000000
0.09332436,0.17229111,9.82059383,-0.00532113,0.00000000,-0.04044056,0.24856567,0.05590820,-0.48480225,0.00000000,-0.00000000,0.31000000,0.01600000,0.00700000,-0.00800000,0.99903715,0.01408403,0.00917852,-0.04052384,-0.00585469,0.00919601,-0.00141284,-0.24220972,0.33822688,-0.12343124,-0.00792999,0.00022295,-0.04076010,0.11894131,0.03005705,-0.00336817,0.02939495,0.01836376,0.01619054,-1.37999487,-1.27589548,13.01363850,0.25015271,0.00000000,0.00000000,1.50000000,0.02158600,0.00000000,1.00000000,79.36359406,15.01527023,-1191183488.00000000,0.00000000,-0.00012206,207.00000000,0.48033226,0.50798106,6.03272057,0.42439035,0.42922035,0.40513527,0.57099479,0.46068725,0.15175638,0.00351281,-0.00551761,0.60056514,0.44387498,-0.62050545,11.40248585,0.99944204,0.02717394,0.01941703,0.00052793,0.00157441,-0.00176538,0.00819340,-0.07966671,-0.08967108,0.00095842,22217612.00000000,-0.00000000,3146443013270536192.00000000,-4283.58056641,-3212832624867278848.00000000,2268976521773318144.00000000,-15326346240.00000000,0.00000000,75.03144836,-40536884887158784.00000000,17729961695711069818766217105637376.00000000,0.00000000
0.09332436,0.14596885,9.81580734,-0.00744958,-0.00106423,-0.03724788,0.24856567,0.05590820,-0.48480225,0.00000000,-0.00000000,0.31000000,0.01600000,0.00700000,-0.00800000,0.99903977,0.01423307,0.00931159,-0.04037674,-0.00602593,0.00943559,-0.00150198,-0.24187061,0.33839628,-0.12590462,-0.00792999,0.00022295,-0.04076010,0.11894131,0.03005705,-0.00336817,0.02939495,0.01836376,0.01619054,-1.42399192,-1.31703329,13.01407719,0.25180247,0.00000000,0.00000000,1.50000000,0.02229400,0.00000000,1.00000000,79.36487579,15.18024635,-1191183488.00000000,0.00000000,-0.00012206,207.00000000,0.45240062,0.48185471,6.30236292,0.39353204,0.39860374,0.37323913,0.54808497,0.43179888,0.10630073,0.00361556,-0.00566136,0.60060084,0.44350189,-0.62112886,11.40831470,0.99944216,0.02718732,0.01939079,0.00052748,0.00162679,-0.00182508,0.00850202,-0.07965811,-0.08966316,0.00098734,22217612.00000000,-0.00000000,3146443013270536192.00000000,-4283.58056641,-3212832624867278848.00000000,2268976521773318144.00000000,-15326346240.00000000,0.00000000,75.03144836,-40536884887158784.00000000,17729961695711069818766217105637376.00000000,0.00000000
0.10050315,0.13400421,9.82777214,-0.01064225,-0.00106423,-0.03831211,0.24856567,0.05590820,-0.48480225,0.00000000,-0.00000000,0.31000000,0.01600000,0.00700000,-0.00800000,0.99904311,0.01442787,0.00948551,-0.04018451,-0.00626735,0.00977420,-0.00163112,-0.24141403,0.33860233,-0.12913668,-0.00792999,0.00022295,-0.04076010,0.11894131,0.03005705,-0.00336817,0.02939495,0.01836376,0.01619054,-1.46649051,-1.35690022,13.01468945,0.25350338,0.00000000,0.00000000,1.50000000,0.02329400,0.00000000,1.00000000,79.36666107,15.35033798,-1191183488.00000000,0.00000000,-0.00012206,207.00000000,0.42536050,0.45652464,6.56418657,0.36357257,0.36887285,0.34228909,0.52583849,0.40375254,0.06217177,0.00376041,-0.00586452,0.60065246,0.44301483,-0.62194991,11.41597652,0.99944234,0.02720497,0.01935648,0.00052689,0.00170084,-0.00190954,0.00893989,-0.07964614,-0.08965220,0.00102801,22217612.00000000,-0.00000000,3146443013270536192.00000000,-4283.58056641,-3212832624867278848.00000000,2268976521773318144.00000000,-15326346240.00000000,0.00000000,75.03144836,-40536884887158784.00000000,17729961695711069818766217105637376.00000000,0.00000000
0.08853849,0.12921834,9.82059383,-0.00532113,-0.00212845,-0.03831211,0.24826050,0.05615234,-0.48486328,0.00000000,-0.00000000,0.31000000,0.01600000,0.00700000,-0.00800000,0.99904698,0.01466009,0.00969284,-0.03995536,-0.00657877,0.01021230,-0.00180307,-0.24085070,0.33882618,-0.13298863,-0.00792999,0.00022295,-0.04076010,0.11894131,0.03005705,-0.00336817,0.02939495,0.01836376,0.01619054,-1.50753367,-1.39554262,13.01547146,0.25524125,0.00000000,0.00000000,1.50000000,0.02458700,0.00000000,1.00000000,79.36894226,15.52412415,-1191183488.00000000,0.00000000,-0.00012206,207.00000000,0.39924693,0.43201435,6.81755686,0.33458504,0.34010294,0.31236213,0.50430959,0.37661889,0.01947989,0.00394726,-0.00612738,0.60072124,0.44243300,-0.62293541,11.42517090,0.99944258,0.02722612,0.01931550,0.00052618,0.00179668,-0.00201897,0.00950910,-0.07963092,-0.08963836,0.00108030,22217612.00000000,-0.00000000,3146443013270536192.00000000,-4283.58056641,-3212832624867278848.00000000,2268976521773318144.00000000,-15326346240.00000000,0.00000000,75.03144836,-40536884887158784.00000000,17729961695711069818766217105637376.00000000,0.00000000
0.09811021,0.13879006,9.81580734,-0.00851380,0.00106423,-0.04256901,0.24826050,0.05615234,-0.48486328,0.00000000,-0.00000000,0.31000000,0.01600000,0.00700000,-0.00800000,0.99904877,0.01477672,0.00979697,-0.03984028,-0.00674884,0.01045192,-0.00189846,-0.24055764,0.33892703,-0.13492261,-0.00792999,0.00022295,-0.04076010,0.11894131,0.03005705,-0.00336817,0.02939495,0.01836376,0.01619054,-1.54718661,-1.43299842,13.01589203,0.25699049,0.00000000,0.00000000,1.50000000,0.02529400,0.00000000,1.00000000,79.37016296,15.69904900,-1191183488.00000000,0.00000000,-0.00012206,207.00000000,0.37410596,0.40841025,7.06153297,0.30668348,0.31240255,0.28356197,0.48357451,0.35049808,-0.02161829,0.00404931,-0.00627115,0.60075939,0.44214165,-0.62343568,11.42982197,0.99944264,0.02723688,0.01929492,0.00052583,0.00184918,-0.00207893,0.00982118,-0.07962267,-0.08963088,0.00110881,22217612.00000000,-0.00000000,3146443013270536192.00000000,-4283.58056641,-3212832624867278848.00000000,2268976521773318144.00000000,-15326346240.00000000,0.00000000,75.03144836,-40536884887158784.00000000,17729961695711069818766217105637376.00000000,0.00000000
0.07178796,0.13879006,9.80623627,-0.00744958,-0.00106423,-0.03831211,0.24826050,0.05615234,-0.48486328,0.00000000,-0.00000000,0.31000000,0.01600000,0.00700000,-0.00800000,0.99905115,0.01492766,0.00993172,-0.03969136,-0.00698901,0.01079096,-0.00203589,-0.24016286,0.33903977,-0.13742459,-0.00792999,0.00022295,-0.04076010,0.11894131,0.03005705,-0.00336817,0.02939495,0.01836376,0.01619054,-1.58549154,-1.46931112,13.01647758,0.25877196,0.00000000,0.00000000,1.50000000,0.02629400,0.00000000,1.00000000,79.37187195,15.87719536,-1191183488.00000000,0.00000000,-0.00012206,207.00000000,0.34997845,0.38577199,7.29536724,0.27994740,0.28585461,0.25596908,0.46369299,0.32546610,-0.06100342,0.00419340,-0.00647458,0.60081434,0.44176474,-0.62408966,11.43589020,0.99944276,0.02725097,0.01926823,0.00052537,0.00192348,-0.00216385,0.01026412,-0.07961114,-0.08962046,0.00114899,22217612.00000000,-0.00000000,3146443013270536192.00000000,-4283.58056641,-3212832624867278848.00000000,2268976521773318144.00000000,-15326346240.00000000,0.00000000,75.03144836,-40536884887158784.00000000,17729961695711069818766217105637376.00000000,0.00000000
0.08375262,0.13639714,9.81102180,-0.00425690,-0.00106423,-0.03299098,0.24905396,0.05584717,-0.48553467,0.00000000,-0.00000000,0.31000000,0.01600000,0.00700000,-0.00800000,0.99905390,0.01510537,0.01009035,-0.03951603,-0.00729867,0.01122914,-0.00221724,-0.23967656,0.33914760,-0.14036892,-0.00792999,0.00022295,-0.04076010,0.11894131,0.03005705,-0.00336817,0.02939495,0.01836376,0.01619054,-1.62249041,-1.50452042,13.01722336,0.26054478,0.00000000,0.00000000,1.50000000,0.02758600,0.00000000,1.00000000,79.37404633,16.05447769,-1191183488.00000000,0.00000000,-0.00012206,207.00000000,0.32687330,0.36409312,7.51881838,0.25440207,0.26047957,0.22961971,0.44468620,0.30154538,-0.09864053,0.00437920,-0.00673748,0.60088694,0.44131991,-0.62486684,11.44310188,0.99944293,0.02726769,0.01923669,0.00052483,0.00201956,-0.00227374,0.01083875,-0.07959644,-0.08960726,0.00120067,22217612.00000000,-0.00000000,3146443013270536192.00000000,-4283.58056641,-3212832624867278848.00000000,2268976521773318144.00000000,-15326346240.00000000,0.00000000,75.03144836,-40536884887158784.00000000,17729961695711069818766217105637376.00000000,0.00000000
0.10528901,0.12682541,9.81580734,-0.01064225,0.00106423,-0.04469746,0.24905396,0.05584717,-0.48553467,0.00000000,-0.00000000,0.31000000,0.01600000,0.00700000,-0.00800000,0.99905515,0.01519371,0.01016919,-0.03942888,-0.00746818,0.01146928,-0.00231766,-0.23942313,0.33918762,-0.14183167,-0.00792999,0.00022295,-0.04076010,0.11894131,0.03005705,-0.00336817,0.02939495,0.01836376,0.01619054,-1.65824175,-1.53865790,13.01762486,0.26227099,0.00000000,0.00000000,1.50000000,0.02829400,0.00000000,1.00000000,79.37521362,16.22709846,-1191183488.00000000,0.00000000,-0.00012206,207.00000000,0.30483007,0.34333879,7.73201990,0.23003229,0.23626304,0.20449534,0.42654711,0.27872109,-0.13455380,0.00448091,-0.00688157,0.60092705,0.44109952,-0.62525856,11.44672394,0.99944299,0.02727614,0.01922099,0.00052457,0.00207228,-0.00233405,0.01115427,-0.07958844,-0.08960009,0.00122893,22217612.00000000,-0.00000000,3146443013270536192.00000000,-4283.58056641,-3212832624867278848.00000000,2268976521773318144.00000000,-15326346240.00000000,0.00000000,75.03144836,-40536884887158784.00000000,17729961695711069818766217105637376.00000000,0.00000000
0.11486074,0.13161127,9.81102180,-0.00744958,0.00212845,-0.04044056,0.24905396,0.05584717,-0.48553467,0.00000000,-0.00000000,0.31000000,0.01600000,0.00700000,-0.00800000,0.99905682,0.01530631,0.01026966,-0.03931780,-0.00770726,0.01180850,-0.00246135,-0.23908222,0.33921793,-0.14369494,-0.00792999,0.00022295,-0.04076010,0.11894131,0.03005705,-0.00336817,0.02939495,0.01836376,0.01619054,-1.69278169,-1.57176399,13.01818180,0.26402348,0.00000000,0.00000000,1.50000000,0.02929400,0.00000000,1.00000000,79.37683868,16.40234756,-1191183488.00000000,0.00000000,-0.00012206,207.00000000,0.28390843,0.32350856,7.93510199,0.20681614,0.21319933,0.18056019,0.40926683,0.25697947,-0.16876537,0.00462436,-0.00708510,0.60098451,0.44081861,-0.62576479,11.45139599,0.99944311,0.02728707,0.01920091,0.00052423,0.00214678,-0.00241932,0.01160108,-0.07957723,-0.08959009,0.00126874,22217612.00000000,-0.00000000,3146443013270536192.00000000,-4283.58056641,-3212832624867278848.00000000,2268976521773318144.00000000,-15326346240.00000000,0.00000000,75.03144836,-40536884887158784.00000000,17729961695711069818766217105637376.00000000,0.00000000
0.10289608,0.13639714,9.80144978,-0.00638535,-0.00106423,-0.03511943,0.24813843,0.05615234,-0.48590088,0.00000000,-0.00000000,0.31000000,0.01600000,0.00700000,-0.00800000,0.99905866,0.01543694,0.01038622,-0.03918892,-0.00801585,0.01224712,-0.00264994,-0.23866174,0.33922422,-0.14585520,-0.00792999,0.00022295,-0.04076010,0.11894131,0.03005705,-0.00336817,0.02939495,0.01836376,0.01619054,-1.72614717,-1.60387766,13.01889038,0.26577616,0.00000000,0.00000000,1.50000000,0.03058700,0.00000000,1.00000000,79.37890625,16.57761574,-1191183488.00000000,0.00000000,-0.00012206,207.00000000,0.26411542,0.30465075,8.12796211,0.18476720,0.19129950,0.15783134,0.39285111,0.23632962,-0.20126167,0.00480951,-0.00734827,0.60105997,0.44049141,-0.62636012,11.45689392,0.99944323,0.02729991,0.01917744,0.00052383,0.00224316,-0.00252971,0.01218054,-0.07956289,-0.08957735,0.00132004,22217612.00000000,-0.00000000,3146443013270536192.00000000,-4283.58056641,-3212832624867278848.00000000,2268976521773318144.00000000,-15326346240.00000000,0.00000000,75.03144836,-40536884887158784.00000000,17729961695711069818766217105637376.00000000,0.00000000
0.11246781,0.12443247,9.79666424,-0.00957803,-0.00212845,-0.04363323,0.24813843,0.05615234,-0.48590088,0.00000000,-0.00000000,0.31000000,0.01600000,0.00700000,-0.00800000,0.99905950,0.01550073,0.01044311,-0.03912598,-0.00818467,0.01248728,-0.00275396,-0.23844251,0.33921126,-0.14690915,-0.00792999,0.00022295,-0.04076010,0.11894131,0.03005705,-0.00336817,0.02939495,0.01836376,0.01619054,-1.75838995,-1.63502645,13.01927376,0.26746136,0.00000000,0.00000000,1.50000000,0.03129500,0.00000000,1.00000000,79.38002014,16.74613571,-1191183488.00000000,0.00000000,-0.00012206,207.00000000,0.24545041,0.28679112,8.31036949,0.16391119,0.17057918,0.13634205,0.37731513,0.21679398,-0.23200884,0.00491080,-0.00749237,0.60110158,0.44033191,-0.62665671,11.45962238,0.99944323,0.02730633,0.01916593,0.00052364,0.00229598,-0.00259022,0.01249829,-0.07955509,-0.08957042,0.00134809,22217612.00000000,-0.00000000,3146443013270536192.00000000,-4283.58056641,-3212832624867278848.00000000,2268976521773318144.00000000,-15326346240.00000000,0.00000000,75.03144836,-40536884887158784.00000000,17729961695711069818766217105637376.00000000,0.00000000
0.09571729,0.12682541,9.82059383,-0.00532113,-0.00106423,-0.03724788,0.24813843,0.05615234,-0.48590088,0.00000000,-0.00000000,0.31000000,0.01600000,0.00700000,-0.00800000,0.99906057,0.01558044,0.01051419,-0.03904733,-0.00842258,0.01282611,-0.00290203,-0.23814744,0.33917069,-0.14822486,-0.00792999,0.00022295,-0.04076010,0.11894131,0.03005705,-0.00336817,0.02939495,0.01836376,0.01619054,-1.78954375,-1.66524065,13.01980209,0.26913369,0.00000000,0.00000000,1.50000000,0.03229400,0.00000000,1.00000000,79.38156128,16.91336823,-1191183488.00000000,0.00000000,-0.00012206,207.00000000,0.22792901,0.26990035,8.48224640,0.14425556,0.15104574,0.11609381,0.36266676,0.19838324,-0.26099038,0.00505355,-0.00769567,0.60116082,0.44013229,-0.62703508,11.46309662,0.99944329,0.02731452,0.01915143,0.00052340,0.00237054,-0.00267567,0.01294747,-0.07954413,-0.08956072,0.00138758,22217612.00000000,-0.00000000,3146443013270536192.00000000,-4283.58056641,-3212832624867278848.00000000,2268976521773318144.00000000,-15326346240.00000000,0.00000000,75.03144836,-40536884887158784.00000000,17729961695711069818766217105637376.00000000,0.00000000
0.09332436,0.12921834,9.82777214,-0.00638535,0.00106423,-0.03831211,0.24795532,0.05566406,-0.48565674,0.00000000,-0.00000000,0.31000000,0.01600000,0.00700000,-0.00800000,0.99906182,0.01567102,0.01059492,-0.03895795,-0.00872979,0.01326422,-0.00309547,-0.23778273,0.33909062,-0.14971812,-0.00792999,0.00022295,-0.04076010,0.11894131,0.03005705,-0.00336817,0.02939495,0.01836376,0.01619054,-1.81964386,-1.69455087,13.02047539,0.27078035,0.00000000,0.00000000,1.50000000,0.03358600,0.00000000,1.00000000,79.38352203,17.07803535,-1191183488.00000000,0.00000000,-0.00012206,207.00000000,0.21152459,0.25394997,8.64379120,0.12578844,0.13268721,0.09707269,0.34889451,0.18108198,-0.28822911,0.00523788,-0.00795853,0.60123819,0.43990409,-0.62747473,11.46713352,0.99944335,0.02732403,0.01913476,0.00052313,0.00246701,-0.00278626,0.01352961,-0.07953007,-0.08954832,0.00143855,22217612.00000000,-0.00000000,3146443013270536192.00000000,-4283.58056641,-3212832624867278848.00000000,2268976521773318144.00000000,-15326346240.00000000,0.00000000,75.03144836,-40536884887158784.00000000,17729961695711069818766217105637376.00000000,0.00000000
0.09571729,0.11007488,9.80623627,-0.00638535,0.00106423,-0.04150478,0.24795532,0.05566406,-0.48565674,0.00000000,-0.00000000,0.31000000,0.01600000,0.00700000,-0.00800000,0.99906242,0.01571429,0.01063346,-0.03891525,-0.00889825,0.01350459,-0.00320212,-0.23759167,0.33903289,-0.15043032,-0.00792999,0.00022295,-0.04076010,0.11894131,0.03005705,-0.00336817,0.02939495,0.01836376,0.01619054,-1.84873676,-1.72298253,13.02083874,0.27235395,0.00000000,0.00000000,1.50000000,0.03429500,0.00000000,1.00000000,79.38458252,17.23539352,-1191183488.00000000,0.00000000,-0.00012206,207.00000000,0.19618255,0.23890188,8.79531288,0.10847634,0.11547203,0.07924174,0.33597189,0.16485628,-0.31377640,0.00533895,-0.00810276,0.60128087,0.43979511,-0.62769115,11.46911430,0.99944335,0.02732873,0.01912671,0.00052300,0.00251998,-0.00284700,0.01384939,-0.07952238,-0.08954155,0.00146649,22217612.00000000,-0.00000000,3146443013270536192.00000000,-4283.58056641,-3212832624867278848.00000000,2268976521773318144.00000000,-15326346240.00000000,0.00000000,75.03144836,-40536884887158784.00000000,17729961695711069818766217105637376.00000000,0.00000000
0.09811021,0.12682541,9.74401951,-0.00638535,0.00000000,-0.03618366,0.24795532,0.05566406,-0.48565674,0.00000000,-0.00000000,0.31000000,0.01600000,0.00700000,-0.00800000,0.99906307,0.01576677,0.01068018,-0.03886344,-0.00913534,0.01384319,-0.00335326,-0.23733421,0.33893302,-0.15129252,-0.00792999,0.00022295,-0.04076010,0.11894131,0.03005705,-0.00336817,0.02939495,0.01836376,0.01619054,-1.87685621,-1.75056493,13.02134228,0.27389824,0.00000000,0.00000000,1.50000000,0.03529400,0.00000000,1.00000000,79.38605499,17.38982391,-1191183488.00000000,0.00000000,-0.00012206,207.00000000,0.18185297,0.22472279,8.93700314,0.09228297,0.09936358,0.06256126,0.32387260,0.14967234,-0.33768475,0.00548121,-0.00830591,0.60134131,0.43966237,-0.62796265,11.47159481,0.99944341,0.02733464,0.01911680,0.00052284,0.00259464,-0.00293263,0.01430052,-0.07951159,-0.08953206,0.00150581,22217612.00000000,-0.00000000,3146443013270536192.00000000,-4283.58056641,-3212832624867278848.00000000,2268976521773318144.00000000,-15326346240.00000000,0.00000000,75.03144836,-40536884887158784.00000000,17729961695711069818766217105637376.00000000,0.00000000
0.11486074,0.07896676,9.73444748,-0.00744958,-0.00212845,-0.04044056,0.24899292,0.05700684,-0.48638916,0.00000000,-0.00000000,0.31000000,0.01600000,0.00700000,-0.00800000,0.99906385,0.01582442,0.01073143,-0.03880653,-0.00944157,0.01428089,-0.00354996,-0.23701519,0.33878112,-0.15223746,-0.00792999,0.00022295,-0.04076010,0.11894131,0.03005705,-0.00336817,0.02939495,0.01836376,0.01619054,-1.90403581,-1.77732420,13.02198505,0.27539700,0.00000000,0.00000000,1.50000000,0.03658600,0.00000000,1.00000000,79.38792419,17.53969955,-1191183488.00000000,0.00000000,-0.00012206,207.00000000,0.16851182,0.21137159,9.06893349,0.07718374,0.08433370,0.04701087,0.31258011,0.13550825,-0.35999122,0.00566494,-0.00856854,0.60141999,0.43951544,-0.62827277,11.47443199,0.99944347,0.02734136,0.01910568,0.00052267,0.00269121,-0.00304343,0.01488476,-0.07949769,-0.08951987,0.00155658,22217612.00000000,-0.00000000,3146443013270536192.00000000,-4283.58056641,-3212832624867278848.00000000,2268976521773318144.00000000,-15326346240.00000000,0.00000000,75.03144836,-40536884887158784.00000000,17729961695711069818766217105637376.00000000,0.00000000
0.16750525,0.00478586,9.83255768,-0.01064225,-0.00106423,-0.03831211,0.24899292,0.05700684,-0.48638916,0.00000000,-0.00000000,0.31000000,0.01600000,0.00700000,-0.00800000,0.99906421,0.01585080,0.01075485,-0.03878047,-0.00960925,0.01452068,-0.00365805,-0.23684768,0.33868644,-0.15266877,-0.00792999,0.00022295,-0.04076010,0.11894131,0.03005705,-0.00336817,0.02939495,0.01836376,0.01619054,-1.93031311,-1.80327976,13.02233124,0.27680522,0.00000000,0.00000000,1.50000000,0.03729400,0.00000000,1.00000000,79.38893127,17.68052101,-1191183488.00000000,0.00000000,-0.00012206,207.00000000,0.15623540,0.19866079,9.19133377,0.06315410,0.07036371,0.03256981,0.30208394,0.12234953,-0.38072351,0.00576555,-0.00871241,0.60146326,0.43944797,-0.62842208,11.47579575,0.99944347,0.02734461,0.01910047,0.00052259,0.00274415,-0.00310418,0.01520511,-0.07949010,-0.08951322,0.00158438,22217612.00000000,-0.00000000,3146443013270536192.00000000,-4283.58056641,-3212832624867278848.00000000,2268976521773318144.00000000,-15326346240.00000000,0.00000000,75.03144836,-40536884887158784.00000000,17729961695711069818766217105637376.00000000,0.00000000
0.14596885,-0.09571729,9.86605930,-0.01277070,-0.00212845,-0.03937633,0.24899292,0.05700684,-0.48638916,0.00000000,-0.00000000,0.31000000,0.01600000,0.00700000,-0.00800000,0.99906462,0.01588125,0.01078183,-0.03875037,-0.00984587,0.01485922,-0.00381121,-0.23662038,0.33853692,-0.15316489,-0.00792999,0.00022295,-0.04076010,0.11894131,0.03005705,-0.00336817,0.02939495,0.01836376,0.01619054,-1.95571089,-1.82845592,13.02281380,0.27817214,0.00000000,0.00000000,1.50000000,0.03829400,0.00000000,1.00000000,79.39034271,17.81721306,-1191183488.00000000,0.00000000,-0.00012206,207.00000000,0.14511669,0.18624841,9.30464649,0.05015835,0.05743117,0.01921154,0.29236805,0.11017506,-0.39991629,0.00590752,-0.00891553,0.60152453,0.43936911,-0.62860441,11.47747517,0.99944347,0.02734853,0.01909425,0.00052249,0.00281893,-0.00319000,0.01565792,-0.07947939,-0.08950385,0.00162363,22217612.00000000,-0.00000000,3146443013270536192.00000000,-4283.58056641,-3212832624867278848.00000000,2268976521773318144.00000000,-15326346240.00000000,0.00000000,75.03144836,-40536884887158784.00000000,17729961695711069818766217105637376.00000000,0.00000000
0.12443247,-0.14357592,9.84212971,-0.01809183,-0.00425690,-0.03831211,0.25045776,0.05548096,-0.48724365,0.00000000,-0.00000000,0.31000000,0.01600000,0.00700000,-0.00800000,0.99906498,0.01591245,0.01080940,-0.03871947,-0.01015122,0.01529633,-0.00400975,-0.23633745,0.33832350,-0.15367104,-0.00792999,0.00022295,-0.04076010,0.11894131,0.03005705,-0.00336817,0.02939495,0.01836376,0.01619054,-1.98024499,-1.85287344,13.02343082,0.27949524,0.00000000,0.00000000,1.50000000,0.03958600,0.00000000,1.00000000,79.39214325,17.94952393,-1191183488.00000000,0.00000000,-0.00012206,207.00000000,0.13510716,0.17378631,9.40926361,0.03814532,0.04549431,0.00689926,0.28340799,0.09894971,-0.41762334,0.00609073,-0.00917780,0.60160393,0.43928629,-0.62880325,11.47934914,0.99944347,0.02735271,0.01908753,0.00052239,0.00291555,-0.00330092,0.01624341,-0.07946559,-0.08949179,0.00167429,22217612.00000000,-0.00000000,3146443013270536192.00000000,-4283.58056641,-3212832624867278848.00000000,2268976521773318144.00000000,-15326346240.00000000,0.00000000,75.03144836,-40536884887158784.00000000,17729961695711069818766217105637376.00000000,0.00000000
0.12682541,-0.16989818,9.85648727,-0.02128450,-0.00638535,-0.03192675,0.25045776,0.05548096,-0.48724365,0.00000000,-0.00000000,0.31000000,0.01600000,0.00700000,-0.00800000,0.99906516,0.01592544,0.01082084,-0.03870655,-0.01031844,0.01553577,-0.00411870,-0.23618792,0.33819565,-0.15388042,-0.00792999,0.00022295,-0.04076010,0.11894131,0.03005705,-0.00336817,0.02939495,0.01836376,0.01619054,-2.00392723,-1.87654173,13.02376175,0.28070268,0.00000000,0.00000000,1.50000000,0.04029400,0.00000000,1.00000000,79.39310455,18.07026672,-1191183488.00000000,0.00000000,-0.00012206,207.00000000,0.12611237,0.16103934,9.50556087,0.02705275,0.03449722,-0.00440544,0.27517438,0.08862928,-0.43391258,0.00619107,-0.00932147,0.60164750,0.43925068,-0.62889248,11.48022652,0.99944347,0.02735450,0.01908452,0.00052234,0.00296851,-0.00336172,0.01656436,-0.07945804,-0.08948519,0.00170204,22217612.00000000,-0.00000000,3146443013270536192.00000000,-4283.58056641,-3212832624867278848.00000000,2268976521773318144.00000000,-15326346240.00000000,0.00000000,75.03144836,-40536884887158784.00000000,17729961695711069818766217105637376.00000000,0.00000000
-0.01435759,-0.12443247,9.97852707,-0.02660563,-0.00638535,-0.03299098,0.25045776,0.05548096,-0.48724365,0.00000000,-0.00000000,0.31000000,0.01600000,0.00700000,-0.00800000,0.99906534,0.01593842,0.01083224,-0.03869348,-0.01055466,0.01587411,-0.00427294,-0.23598370,0.33799931,-0.15408804,-0.00792999,0.00022295,-0.04076010,0.11894131,0.03005705,-0.00336817,0.02939495,0.01836376,0.01619054,-2.02675700,-1.89947140,13.02422619,0.28181165,0.00000000,0.00000000,1.50000000,0.04129500,0.00000000,1.00000000,79.39445496,18.18116379,-1191183488.00000000,0.00000000,-0.00012206,207.00000000,0.11790965,0.14794531,9.59417248,0.01681925,0.02438945,-0.01473543,0.26763541,0.07917113,-0.44884989,0.00633280,-0.00952447,0.60170919,0.43921307,-0.62899047,11.48127270,0.99944353,0.02735627,0.01908115,0.00052228,0.00304339,-0.00344769,0.01701829,-0.07944737,-0.08947588,0.00174127,22217612.00000000,-0.00000000,3146443013270536192.00000000,-4283.58056641,-3212832624867278848.00000000,2268976521773318144.00000000,-15326346240.00000000,0.00000000,75.03144836,-40536884887158784.00000000,17729961695711069818766217105637376.00000000,0.00000000
-0.04785864,-0.04546571,10.10774517,-0.03192675,-0.00532113,-0.03831211,0.25003052,0.05560303,-0.48883057,0.00000000,-0.00000000,0.31000000,0.01600000,0.00700000,-0.00800000,0.99906546,0.01594879,0.01084130,-0.03868271,-0.01085899,0.01631012,-0.00447208,-0.23572934,0.33772609,-0.15425062,-0.00792999,0.00022295,-0.04076010,0.11894131,0.03005705,-0.00336817,0.02939495,0.01836376,0.01619054,-2.04872608,-1.92167377,13.02481270,0.28283304,0.00000000,0.00000000,1.50000000,0.04258600,0.00000000,1.00000000,79.39617157,18.28330231,-1191183488.00000000,0.00000000,-0.00012206,207.00000000,0.11007965,0.13467906,9.67594147,0.00738797,0.01513524,-0.02413497,0.26076132,0.07053822,-0.46249336,0.00651539,-0.00978607,0.60178888,0.43918046,-0.62908041,11.48239136,0.99944353,0.02735751,0.01907787,0.00052221,0.00313996,-0.00355857,0.01760392,-0.07943362,-0.08946388,0.00179184,22217612.00000000,-0.00000000,3146443013270536192.00000000,-4283.58056641,-3212832624867278848.00000000,2268976521773318144.00000000,-15326346240.00000000,0.00000000,75.03144836,-40536884887158784.00000000,17729961695711069818766217105637376.00000000,0.00000000
-0.09093142,0.04067985,9.98091984,-0.03299098,-0.00425690,-0.03405520,0.25003052,0.05560303,-0.48883057,0.00000000,-0.00000000,0.31000000,0.01600000,0.00700000,-0.00800000,0.99906552,0.01595126,0.01084346,-0.03867983,-0.01102579,0.01654911,-0.00458131,-0.23559493,0.33756569,-0.15428661,-0.00792999,0.00022295,-0.04076010,0.11894131,0.03005705,-0.00336817,0.02939495,0.01836376,0.01619054,-2.06982017,-1.94315779,13.02512360,0.28373128,0.00000000,0.00000000,1.50000000,0.04329400,0.00000000,1.00000000,79.39707947,18.37312698,-1191183488.00000000,0.00000000,-0.00012206,207.00000000,0.10230432,0.12162428,9.75134659,-0.00128967,0.00670678,-0.03264724,0.25452518,0.06269646,-0.47489679,0.00661547,-0.00992947,0.60183257,0.43917164,-0.62911063,11.48288727,0.99944353,0.02735764,0.01907666,0.00052218,0.00319292,-0.00361939,0.01792512,-0.07942608,-0.08945730,0.00181958,22217612.00000000,-0.00000000,3146443013270536192.00000000,-4283.58056641,-3212832624867278848.00000000,2268976521773318144.00000000,-15326346240.00000000,0.00000000,75.03144836,-40536884887158784.00000000,17729961695711069818766217105637376.00000000,0.00000000
-0.11007488,0.17468405,9.74880505,-0.03724788,-0.00425690,-0.03618366,0.25003052,0.05560303,-0.48883057,0.00000000,-0.00000000,0.31000000,0.01600000,0.00700000,-0.00800000,0.99906552,0.01595057,0.01084290,-0.03867961,-0.01126167,0.01688711,-0.00473589,-0.23541217,0.33732477,-0.15426886,-0.00792999,0.00022295,-0.04076010,0.11894131,0.03005705,-0.00336817,0.02939495,0.01836376,0.01619054,-2.09002280,-1.96393859,13.02555466,0.28454903,0.00000000,0.00000000,1.50000000,0.04429600,0.00000000,1.00000000,79.39833069,18.45490265,-1191183488.00000000,0.00000000,-0.00012206,207.00000000,0.09439097,0.10932505,9.82013607,-0.00925633,-0.00092741,-0.04030573,0.24889915,0.05561131,-0.48611414,0.00675700,-0.01013227,0.60189438,0.43917236,-0.62912810,11.48343945,0.99944359,0.02735709,0.01907578,0.00052215,0.00326787,-0.00370546,0.01837973,-0.07941541,-0.08944800,0.00185883,22217612.00000000,-0.00000000,3146443013270536192.00000000,-4283.58056641,-3212832624867278848.00000000,2268976521773318144.00000000,-15326346240.00000000,0.00000000,75.03144836,-40536884887158784.00000000,17729961695711069818766217105637376.00000000,0.00000000
-0.08375262,0.20818509,9.76076984,-0.04150478,-0.00212845,-0.04044056,0.25021362,0.05541992,-0.49017334,0.00000000,-0.00000000,0.31000000,0.01600000,0.00700000,-0.00800000,0.99906552,0.01594476,0.01083801,-0.03868375,-0.01156507,0.01732184,-0.00493477,-0.23518695,0.33699882,-0.15416642,-0.00792999,0.00022295,-0.04076010,0.11894131,0.03005705,-0.00336817,0.02939495,0.01836376,0.01619054,-2.10931444,-1.98403299,13.02609348,0.28530720,0.00000000,0.00000000,1.50000000,0.04558600,0.00000000,1.00000000,79.39990234,18.53071976,-1191183488.00000000,0.00000000,-0.00012206,207.00000000,0.08624263,0.09833138,9.88203239,-0.01656158,-0.00780350,-0.04716196,0.24385169,0.04924498,-0.49620703,0.00693904,-0.01039311,0.60197395,0.43919113,-0.62912172,11.48397446,0.99944365,0.02735554,0.01907571,0.00052212,0.00336435,-0.00381626,0.01896498,-0.07940167,-0.08943601,0.00190936,22217612.00000000,-0.00000000,3146443013270536192.00000000,-4283.58056641,-3212832624867278848.00000000,2268976521773318144.00000000,-15326346240.00000000,0.00000000,75.03144836,-40536884887158784.00000000,17729961695711069818766217105637376.00000000,0.00000000
0.15793352,0.21775682,9.97852707,-0.04256901,0.00106423,-0.03724788,0.25021362,0.05541992,-0.49017334,0.00000000,-0.00000000,0.31000000,0.01600000,0.00700000,-0.00800000,0.99906546,0.01593909,0.01083327,-0.03868821,-0.01173173,0.01756064,-0.00504400,-0.23506863,0.33681226,-0.15407084,-0.00792999,0.00022295,-0.04076010,0.11894131,0.03005705,-0.00336817,0.02939495,0.01836376,0.01619054,-2.12766933,-2.00345922,13.02638054,0.28598601,0.00000000,0.00000000,1.50000000,0.04629500,0.00000000,1.00000000,79.40074158,18.59860039,-1191183488.00000000,0.00000000,-0.00012206,207.00000000,0.07820085,0.08893103,9.93755722,-0.02325487,-0.01395457,-0.05327640,0.23934877,0.04355706,-0.50524372,0.00703904,-0.01053638,0.60201758,0.43921119,-0.62910467,11.48418140,0.99944365,0.02735431,0.01907624,0.00052211,0.00341738,-0.00387715,0.01928662,-0.07939412,-0.08942942,0.00193714,22217612.00000000,-0.00000000,3146443013270536192.00000000,-4283.58056641,-3212832624867278848.00000000,2268976521773318144.00000000,-15326346240.00000000,0.00000000,75.03144836,-40536884887158784.00000000,17729961695711069818766217105637376.00000000,0.00000000
0.40679845,0.27279428,10.04792213,-0.04682591,-0.00106423,-0.04576168,0.25021362,0.05541992,-0.49017334,0.00000000,-0.00000000,0.31000000,0.01600000,0.00700000,-0.00800000,0.99906540,0.01592791,0.01082403,-0.03869721,-0.01196640,0.01789684,-0.00519774,-0.23490867,0.33654088,-0.15388633,-0.00792999,0.00022295,-0.04076010,0.11894131,0.03005705,-0.00336817,0.02939495,0.01836376,0.01619054,-2.14506721,-2.02224207,13.02677250,0.28666839,0.00000000,0.00000000,1.50000000,0.04729400,0.00000000,1.00000000,79.40188599,18.66683960,-1191183488.00000000,0.00000000,-0.00012206,207.00000000,0.07117654,0.08124018,9.98755455,-0.02937824,-0.01941476,-0.05870432,0.23535728,0.03850739,-0.51328862,0.00717984,-0.01073811,0.60207909,0.43925139,-0.62906510,11.48436356,0.99944371,0.02735216,0.01907769,0.00052211,0.00349209,-0.00396294,0.01973974,-0.07938346,-0.08942012,0.00197629,22217612.00000000,-0.00000000,3146443013270536192.00000000,-4283.58056641,-3212832624867278848.00000000,2268976521773318144.00000000,-15326346240.00000000,0.00000000,75.03144836,-40536884887158784.00000000,17729961695711069818766217105637376.00000000,0.00000000
0.61259061,0.39483380,9.57412148,-0.04469746,-0.01064225,-0.05746816,0.25277710,0.05383301,-0.49273682,0.00000000,-0.00000000,0.31000000,0.01600000,0.00700000,-0.00800000,0.99906528,0.01590969,0.01080915,-0.03871195,-0.01226964,0.01833119,-0.00539617,-0.23470794,0.33618155,-0.15359056,-0.00792999,0.00022295,-0.04076010,0.11894131,0.03005705,-0.00336817,0.02939495,0.01836376,0.01619054,-2.16149044,-2.04039979,13.02726460,0.28743234,0.00000000,0.00000000,1.50000000,0.04858600,0.00000000,1.00000000,79.40332031,18.74323273,-1191183488.00000000,0.00000000,-0.00012206,207.00000000,0.06622391,0.07546342,10.03187370,-0.03496637,-0.02423585,-0.06351698,0.23185042,0.03405614,-0.52040184,0.00736179,-0.01099871,0.60215849,0.43931419,-0.62899834,11.48447418,0.99944371,0.02734900,0.01908024,0.00052212,0.00358870,-0.00407387,0.02032560,-0.07936966,-0.08940807,0.00202694,22217612.00000000,-0.00000000,3146443013270536192.00000000,-4283.58056641,-3212832624867278848.00000000,2268976521773318144.00000000,-15326346240.00000000,0.00000000,75.03144836,-40536884887158784.00000000,17729961695711069818766217105637376.00000000,0.00000000
0.81120402,0.57430369,8.89213562,-0.04256901,-0.02554140,-0.06066084,0.25277710,0.05383301,-0.49273682,0.00000000,-0.00000000,0.31000000,0.01600000,0.00700000,-0.00800000,0.99906522,0.01589784,0.01079959,-0.03872155,-0.01243574,0.01856907,-0.00550478,-0.23459910,0.33598161,-0.15340228,-0.00792999,0.00022295,-0.04076010,0.11894131,0.03005705,-0.00336817,0.02939495,0.01836376,0.01619054,-2.17692423,-2.05793071,13.02752972,0.28830707,0.00000000,0.00000000,1.50000000,0.04929400,0.00000000,1.00000000,79.40409088,18.83070755,-1191183488.00000000,0.00000000,-0.00012206,207.00000000,0.06427623,0.07197475,10.06895733,-0.04004080,-0.02849430,-0.06778711,0.22880620,0.03016419,-0.52664196,0.00746144,-0.01114144,0.60220188,0.43935061,-0.62895614,11.48447609,0.99944371,0.02734716,0.01908182,0.00052212,0.00364163,-0.00413464,0.02064658,-0.07936209,-0.08940146,0.00205471,22217612.00000000,-0.00000000,3146443013270536192.00000000,-4283.58056641,-3212832624867278848.00000000,2268976521773318144.00000000,-15326346240.00000000,0.00000000,75.03144836,-40536884887158784.00000000,17729961695711069818766217105637376.00000000,0.00000000
0.82795453,0.66044927,9.00221062,-0.04363323,-0.03937633,-0.06598196,0.25277710,0.05383301,-0.49273682,0.00000000,-0.00000000,0.31000000,0.01600000,0.00700000,-0.00800000,0.99906510,0.01587872,0.01078431,-0.03873700,-0.01267018,0.01890476,-0.00565789,-0.23444343,0.33569774,-0.15310772,-0.00792999,0.00022295,-0.04076010,0.11894131,0.03005705,-0.00336817,0.02939495,0.01836376,0.01619054,-2.19136620,-2.07480979,13.02790642,0.28939676,0.00000000,0.00000000,1.50000000,0.05029400,0.00000000,1.00000000,79.40518951,18.93967438,-1191183488.00000000,0.00000000,-0.00012206,207.00000000,0.06600665,0.07117210,10.09766293,-0.04462123,-0.03228195,-0.07157116,0.22619881,0.02679561,-0.53206348,0.00760211,-0.01134286,0.60226315,0.43939835,-0.62889355,11.48441601,0.99944377,0.02734459,0.01908400,0.00052213,0.00371639,-0.00422047,0.02109981,-0.07935139,-0.08939210,0.00209394,22217612.00000000,-0.00000000,3146443013270536192.00000000,-4283.58056641,-3212832624867278848.00000000,2268976521773318144.00000000,-15326346240.00000000,0.00000000,75.03144836,-40536884887158784.00000000,17729961695711069818766217105637376.00000000,0.00000000
0.62216234,0.68916446,9.64590931,-0.03831211,-0.05427548,-0.06917463,0.25338745,0.05505371,-0.49340820,0.00000000,-0.00000000,0.31000000,0.01600000,0.00700000,-0.00800000,0.99906492,0.01585125,0.01076250,-0.03875914,-0.01297282,0.01933801,-0.00585518,-0.23423521,0.33533296,-0.15269950,-0.00792999,0.00022295,-0.04076010,0.11894131,0.03005705,-0.00336817,0.02939495,0.01836376,0.01619054,-2.20481992,-2.09098601,13.02840519,0.29074514,0.00000000,0.00000000,1.50000000,0.05158600,0.00000000,1.00000000,79.40663910,19.07451248,-1191183488.00000000,0.00000000,-0.00012206,207.00000000,0.07133941,0.07326166,10.11910534,-0.04872799,-0.03569648,-0.07492596,0.22399963,0.02391693,-0.53672159,0.00778369,-0.01160281,0.60234207,0.43944696,-0.62881571,11.48427677,0.99944377,0.02734154,0.01908634,0.00052214,0.00381295,-0.00433134,0.02168511,-0.07933753,-0.08937998,0.00214465,22217612.00000000,-0.00000000,3146443013270536192.00000000,-4283.58056641,-3212832624867278848.00000000,2268976521773318144.00000000,-15326346240.00000000,0.00000000,75.03144836,-40536884887158784.00000000,17729961695711069818766217105637376.00000000,0.00000000
0.17946991,0.64609170,9.87084484,-0.03618366,-0.06278928,-0.07555999,0.25338745,0.05505371,-0.49340820,0.00000000,-0.00000000,0.31000000,0.01600000,0.00700000,-0.00800000,0.99906480,0.01583485,0.01074950,-0.03877233,-0.01313857,0.01957529,-0.00596312,-0.23411530,0.33513603,-0.15246440,-0.00792999,0.00022295,-0.04076010,0.11894131,0.03005705,-0.00336817,0.02939495,0.01836376,0.01619054,-2.21730232,-2.10638094,13.02868557,0.29234383,0.00000000,0.00000000,1.50000000,0.05229400,0.00000000,1.00000000,79.40745544,19.23438263,-1191183488.00000000,0.00000000,-0.00012206,207.00000000,0.07910488,0.07822930,10.13523006,-0.05237211,-0.03883220,-0.07791202,0.22218090,0.02149510,-0.54067385,0.00788314,-0.01174517,0.60238522,0.43946305,-0.62877828,11.48417568,0.99944383,0.02734016,0.01908721,0.00052214,0.00386585,-0.00439207,0.02200577,-0.07932992,-0.08937333,0.00217245,22217612.00000000,-0.00000000,3146443013270536192.00000000,-4283.58056641,-3212832624867278848.00000000,2268976521773318144.00000000,-15326346240.00000000,0.00000000,75.03144836,-40536884887158784.00000000,17729961695711069818766217105637376.00000000,0.00000000
0.40201259,0.38526207,9.70573235,-0.03937633,-0.07023886,-0.08620223,0.25338745,0.05505371,-0.49340820,0.00000000,-0.00000000,0.31000000,0.01600000,0.00700000,-0.00800000,0.99906462,0.01581003,0.01072977,-0.03879230,-0.01337251,0.01991015,-0.00611524,-0.23393658,0.33486465,-0.15212083,-0.00792999,0.00022295,-0.04076010,0.11894131,0.03005705,-0.00336817,0.02939495,0.01836376,0.01619054,-2.22883606,-2.12090325,13.02909756,0.29431644,0.00000000,0.00000000,1.50000000,0.05329400,0.00000000,1.00000000,79.40866089,19.43164444,-1191183488.00000000,0.00000000,-0.00012206,207.00000000,0.08808764,0.08559834,10.14670849,-0.05557158,-0.04176567,-0.08059061,0.22071421,0.01949683,-0.54397392,0.00802350,-0.01194609,0.60244608,0.43946868,-0.62873715,11.48400593,0.99944383,0.02733877,0.01908774,0.00052213,0.00394055,-0.00447785,0.02245851,-0.07931916,-0.08936391,0.00221173,22217612.00000000,-0.00000000,3146443013270536192.00000000,-4283.58056641,-3212832624867278848.00000000,2268976521773318144.00000000,-15326346240.00000000,0.00000000,75.03144836,-40536884887158784.00000000,17729961695711069818766217105637376.00000000,0.00000000
0.80641812,0.09332436,10.01202774,-0.03724788,-0.06278928,-0.07023886,0.25143433,0.05444336,-0.49346924,0.00000000,-0.00000000,0.31000000,0.01600000,0.00700000,-0.00800000,0.99906439,0.01577607,0.01070257,-0.03881966,-0.01367444,0.02034236,-0.00631120,-0.23369196,0.33452466,-0.15166719,-0.00792999,0.00022295,-0.04076010,0.11894131,0.03005705,-0.00336817,0.02939495,0.01836376,0.01619054,-2.23944473,-2.13446403,13.02964878,0.29665118,0.00000000,0.00000000,1.50000000,0.05458600,0.00000000,1.00000000,79.41026306,19.66511917,-1191183488.00000000,0.00000000,-0.00012206,207.00000000,0.09843191,0.09419236,10.15419102,-0.05835366,-0.04453555,-0.08299021,0.21956921,0.01788989,-0.54666972,0.00820466,-0.01220542,0.60252446,0.43945095,-0.62870282,11.48376465,0.99944389,0.02733786,0.01908738,0.00052210,0.00403704,-0.00458864,0.02304316,-0.07930520,-0.08935171,0.00226252,22217612.00000000,-0.00000000,3146443013270536192.00000000,-4283.58056641,-3212832624867278848.00000000,2268976521773318144.00000000,-15326346240.00000000,0.00000000,75.03144836,-40536884887158784.00000000,17729961695711069818766217105637376.00000000,0.00000000
0.70591497,0.03828691,10.74187279,-0.03511943,-0.07130308,-0.05853238,0.25143433,0.05444336,-0.49346924,0.00000000,-0.00000000,0.31000000,0.01600000,0.00700000,-0.00800000,0.99906427,0.01575655,0.01068677,-0.03883542,-0.01384002,0.02057941,-0.00641855,-0.23354883,0.33434361,-0.15141386,-0.00792999,0.00022295,-0.04076010,0.11894131,0.03005705,-0.00336817,0.02939495,0.01836376,0.01619054,-2.24916792,-2.14697838,13.02995872,0.29913089,0.00000000,0.00000000,1.50000000,0.05529500,0.00000000,1.00000000,79.41117096,19.91308784,-1191183488.00000000,0.00000000,-0.00012206,207.00000000,0.11052708,0.10274044,10.16038609,-0.06073808,-0.04715227,-0.08508349,0.21871538,0.01664410,-0.54880571,0.00830401,-0.01234765,0.60256743,0.43942508,-0.62869364,11.48362350,0.99944389,0.02733780,0.01908649,0.00052207,0.00408996,-0.00464942,0.02336391,-0.07929754,-0.08934501,0.00229040,22217612.00000000,-0.00000000,3146443013270536192.00000000,-4283.58056641,-3212832624867278848.00000000,2268976521773318144.00000000,-15326346240.00000000,0.00000000,75.03144836,-40536884887158784.00000000,17729961695711069818766217105637376.00000000,0.00000000
-0.22972149,0.44987124,10.62461853,-0.02979830,-0.09471604,-0.06385351,0.25143433,0.05444336,-0.49346924,0.00000000,-0.00000000,0.31000000,0.01600000,0.00700000,-0.00800000,0.99906409,0.01572798,0.01066330,-0.03885853,-0.01407312,0.02091317,-0.00656945,-0.23333453,0.33409613,-0.15104923,-0.00792999,0.00022295,-0.04076010,0.11894131,0.03005705,-0.00336817,0.02939495,0.01836376,0.01619054,-2.25804019,-2.15836763,13.03039360,0.30170852,0.00000000,0.00000000,1.50000000,0.05629400,0.00000000,1.00000000,79.41243744,20.17085266,-1191183488.00000000,0.00000000,-0.00012206,207.00000000,0.12287965,0.11098947,10.16808319,-0.06273828,-0.04965640,-0.08685623,0.21812625,0.01573042,-0.55042529,0.00844387,-0.01254790,0.60262781,0.43936563,-0.62869430,11.48340511,0.99944395,0.02733835,0.01908427,0.00052202,0.00416451,-0.00473505,0.02381566,-0.07928670,-0.08933554,0.00232972,22217612.00000000,-0.00000000,3146443013270536192.00000000,-4283.58056641,-3212832624867278848.00000000,2268976521773318144.00000000,-15326346240.00000000,0.00000000,75.03144836,-40536884887158784.00000000,17729961695711069818766217105637376.00000000,0.00000000
-0.12203954,0.63173407,9.46643925,-0.02234873,-0.11919322,-0.09471604,0.25259399,0.05389404,-0.49212646,0.00000000,-0.00000000,0.31000000,0.01600000,0.00700000,-0.00800000,0.99906385,0.01568992,0.01063142,-0.03888940,-0.01437421,0.02134443,-0.00676398,-0.23304328,0.33378682,-0.15056701,-0.00792999,0.00022295,-0.04076010,0.11894131,0.03005705,-0.00336817,0.02939495,0.01836376,0.01619054,-2.26610446,-2.16853094,13.03094482,0.30446666,0.00000000,0.00000000,1.50000000,0.05758600,0.00000000,1.00000000,79.41404724,20.44666672,-1191183488.00000000,0.00000000,-0.00012206,207.00000000,0.13359670,0.11964328,10.17627048,-0.06436168,-0.05213139,-0.08837184,0.21777909,0.01511890,-0.55157059,0.00862453,-0.01280666,0.60270560,0.43926290,-0.62871403,11.48309994,0.99944395,0.02733993,0.01908031,0.00052194,0.00426088,-0.00484577,0.02439960,-0.07927264,-0.08932325,0.00238059,22217612.00000000,-0.00000000,3146443013270536192.00000000,-4283.58056641,-3212832624867278848.00000000,2268976521773318144.00000000,-15326346240.00000000,0.00000000,75.03144836,-40536884887158784.00000000,17729961695711069818766217105637376.00000000,0.00000000
-0.99306685,0.51926625,8.62891293,-0.00638535,-0.12238589,-0.09045914,0.25259399,0.05389404,-0.49212646,0.00000000,-0.00000000,0.31000000,0.01600000,0.00700000,-0.00800000,0.99906361,0.01566858,0.01061307,-0.03890679,-0.01453909,0.02158063,-0.00687039,-0.23287769,0.33362374,-0.15029941,-0.00792999,0.00022295,-0.04076010,0.11894131,0.03005705,-0.00336817,0.02939495,0.01836376,0.01619054,-2.27344203,-2.17734218,13.03124142,0.30745056,0.00000000,0.00000000,1.50000000,0.05829400,0.00000000,1.00000000,79.41490936,20.74505615,-1191183488.00000000,0.00000000,-0.00012206,207.00000000,0.14161795,0.12907527,10.18087864,-0.06559686,-0.05464646,-0.08970897,0.21765235,0.01477915,-0.55228198,0.00872345,-0.01294838,0.60274816,0.43919572,-0.62873620,11.48292446,0.99944401,0.02734131,0.01907769,0.00052190,0.00431366,-0.00490643,0.02471949,-0.07926491,-0.08931651,0.00240849,22217612.00000000,-0.00000000,3146443013270536192.00000000,-4283.58056641,-3212832624867278848.00000000,2268976521773318144.00000000,-15326346240.00000000,0.00000000,75.03144836,-40536884887158784.00000000,17729961695711069818766217105637376.00000000,0.00000000
-0.99067390,0.71070087,8.64805698,0.00957803,-0.11067942,-0.04256901,0.25259399,0.05389404,-0.49212646,0.00000000,-0.00000000,0.31000000,0.01600000,0.00700000,-0.00800000,0.99906343,0.01563796,0.01058589,-0.03893197,-0.01477196,0.02191437,-0.00702047,-0.23263970,0.33340400,-0.14992256,-0.00792999,0.00022295,-0.04076010,0.11894131,0.03005705,-0.00336817,0.02939495,0.01836376,0.01619054,-2.28013945,-2.18469501,13.03166485,0.31056979,0.00000000,0.00000000,1.50000000,0.05929500,0.00000000,1.00000000,79.41614532,21.05697823,-1191183488.00000000,0.00000000,-0.00012206,207.00000000,0.14524397,0.13952911,10.17912865,-0.06640898,-0.05721590,-0.09082982,0.21772471,0.01468375,-0.55259919,0.00886318,-0.01314862,0.60280818,0.43909344,-0.62878692,11.48267937,0.99944395,0.02734409,0.01907365,0.00052184,0.00438826,-0.00499219,0.02517158,-0.07925396,-0.08930695,0.00244795,22217612.00000000,-0.00000000,3146443013270536192.00000000,-4283.58056641,-3212832624867278848.00000000,2268976521773318144.00000000,-15326346240.00000000,0.00000000,75.03144836,-40536884887158784.00000000,17729961695711069818766217105637376.00000000,0.00000000
-2.71597791,0.58626837,8.75334549,0.01596338,-0.08513802,-0.01064225,0.25222778,0.05438232,-0.48950195,0.00000000,-0.00000000,0.31000000,0.01600000,0.00700000,-0.00800000,0.99906313,0.01559816,0.01054917,-0.03896497,-0.01507191,0.02234445,-0.00721340,-0.23233812,0.33313802,-0.14944686,-0.00792999,0.00022295,-0.04076010,0.11894131,0.03005705,-0.00336817,0.02939495,0.01836376,0.01619054,-2.28630471,-2.19051290,13.03223038,0.31343853,0.00000000,0.00000000,1.50000000,0.06058600,0.00000000,1.00000000,79.41779327,21.34385300,-1191183488.00000000,0.00000000,-0.00012206,207.00000000,0.14102554,0.15161407,10.17062855,-0.06676622,-0.05979941,-0.09160723,0.21797599,0.01480931,-0.55255663,0.00904315,-0.01340667,0.60288537,0.43897066,-0.62888318,11.48238564,0.99944395,0.02734897,0.01906880,0.00052180,0.00448442,-0.00510276,0.02575434,-0.07923978,-0.08929458,0.00249889,22217612.00000000,-0.00000000,3146443013270536192.00000000,-4283.58056641,-3212832624867278848.00000000,2268976521773318144.00000000,-15326346240.00000000,0.00000000,75.03144836,-40536884887158784.00000000,17729961695711069818766217105637376.00000000,0.00000000
-2.85716105,-0.31108117,9.57412148,0.01596338,-0.06278928,-0.02234873,0.25222778,0.05438232,-0.48950195,0.00000000,-0.00000000,0.31000000,0.01600000,0.00700000,-0.00800000,0.99906301,0.01557633,0.01052814,-0.03898321,-0.01523630,0.02258022,-0.00731903,-0.23218405,0.33300266,-0.14919557,-0.00792999,0.00022295,-0.04076010,0.11894131,0.03005705,-0.00336817,0.02939495,0.01836376,0.01619054,-2.29208732,-2.19476986,13.03255653,0.31578693,0.00000000,0.00000000,1.50000000,0.06129400,0.00000000,1.00000000,79.41873932,21.57869339,-1191183488.00000000,0.00000000,-0.00012206,207.00000000,0.12468389,0.16433853,10.15631294,-0.06666723,-0.06231406,-0.09199129,0.21838781,0.01513479,-0.55218291,0.00914178,-0.01354813,0.60292763,0.43892360,-0.62895477,11.48224545,0.99944389,0.02735241,0.01906698,0.00052182,0.00453713,-0.00516339,0.02607384,-0.07923198,-0.08928779,0.00252684,22217612.00000000,-0.00000000,3146443013270536192.00000000,-4283.58056641,-3212832624867278848.00000000,2268976521773318144.00000000,-15326346240.00000000,0.00000000,75.03144836,-40536884887158784.00000000,17729961695711069818766217105637376.00000000,0.00000000
-2.35225224,0.27040133,10.43557739,0.03192675,-0.02873408,-0.00106423,0.25222778,0.05438232,-0.48950195,0.00000000,-0.00000000,0.31000000,0.01600000,0.00700000,-0.00800000,0.99906284,0.01554570,0.01049725,-0.03900903,-0.01546853,0.02291338,-0.00746804,-0.23199543,0.33282641,-0.14885667,-0.00792999,0.00022295,-0.04076010,0.11894131,0.03005705,-0.00336817,0.02939495,0.01836376,0.01619054,-2.29760861,-2.19750214,13.03304958,0.31766030,0.00000000,0.00000000,1.50000000,0.06229500,0.00000000,1.00000000,79.42018127,21.76602936,-1191183488.00000000,0.00000000,-0.00012206,207.00000000,0.09544277,0.17601466,10.13888645,-0.06611533,-0.06463157,-0.09198553,0.21894237,0.01563939,-0.55150950,0.00928112,-0.01374803,0.60298723,0.43890938,-0.62908304,11.48208237,0.99944371,0.02735837,0.01906662,0.00052192,0.00461162,-0.00524909,0.02652540,-0.07922093,-0.08927815,0.00256637,22217612.00000000,-0.00000000,3146443013270536192.00000000,-4283.58056641,-3212832624867278848.00000000,2268976521773318144.00000000,-15326346240.00000000,0.00000000,75.03144836,-40536884887158784.00000000,17729961695711069818766217105637376.00000000,0.00000000
-0.14357592,0.46183589,11.01705933,0.03724788,-0.02128450,0.03724788,0.25070190,0.05371094,-0.48852539,0.00000000,-0.00000000,0.31000000,0.01600000,0.00700000,-0.00800000,0.99906260,0.01550683,0.01045613,-0.03904200,-0.01576755,0.02334245,-0.00765952,-0.23180075,0.33261877,-0.14843981,-0.00792999,0.00022295,-0.04076010,0.11894131,0.03005705,-0.00336817,0.02939495,0.01836376,0.01619054,-2.30299878,-2.19881177,13.03371620,0.31876868,0.00000000,0.00000000,1.50000000,0.06358500,0.00000000,1.00000000,79.42211914,21.87686920,-1191183488.00000000,0.00000000,-0.00012206,207.00000000,0.05808058,0.18692236,10.12228203,-0.06510366,-0.06660958,-0.09149340,0.21961974,0.01630148,-0.55056858,0.00946053,-0.01400547,0.60306382,0.43897787,-0.62928319,11.48191547,0.99944341,0.02736744,0.01906984,0.00052218,0.00470759,-0.00535953,0.02710706,-0.07920662,-0.08926566,0.00261737,22217612.00000000,-0.00000000,3146443013270536192.00000000,-4283.58056641,-3212832624867278848.00000000,2268976521773318144.00000000,-15326346240.00000000,0.00000000,75.03144836,-40536884887158784.00000000,17729961695711069818766217105637376.00000000,0.00000000
0.89974248,-0.96913749,10.85434055,0.03724788,-0.01064225,0.03192675,0.25070190,0.05371094,-0.48852539,0.00000000,-0.00000000,0.31000000,0.01600000,0.00700000,-0.00800000,0.99906248,0.01548591,0.01043289,-0.03905981,-0.01593230,0.02357887,-0.00776491,-0.23172055,0.33251330,-0.14821823,-0.00792999,0.00022295,-0.04076010,0.11894131,0.03005705,-0.00336817,0.02939495,0.01836376,0.01619054,-2.30842566,-2.19888830,13.03408909,0.31869859,0.00000000,0.00000000,1.50000000,0.06429600,0.00000000,1.00000000,79.42321014,21.86985779,-1191183488.00000000,0.00000000,-0.00012206,207.00000000,0.01984240,0.19576508,10.10965443,-0.06365468,-0.06815447,-0.09040899,0.22039880,0.01709977,-0.54938954,0.00955938,-0.01414732,0.60310596,0.43906429,-0.62940949,11.48184109,0.99944317,0.02737310,0.01907370,0.00052240,0.00476045,-0.00542037,0.02742758,-0.07919871,-0.08925876,0.00264549,22217612.00000000,-0.00000000,3146443013270536192.00000000,-4283.58056641,-3212832624867278848.00000000,2268976521773318144.00000000,-15326346240.00000000,0.00000000,75.03144836,-40536884887158784.00000000,17729961695711069818766217105637376.00000000,0.00000000
-0.25843668,-1.71812522,11.40950012,0.04576168,-0.00106423,0.00000000,0.25070190,0.05371094,-0.48852539,0.00000000,-0.00000000,0.31000000,0.01600000,0.00700000,-0.00800000,0.99906230,0.01545744,0.01039969,-0.03908401,-0.01616348,0.02391058,-0.00791252,-0.23164397,0.33237138,-0.14791276,-0.00792999,0.00022295,-0.04076010,0.11894131,0.03005705,-0.00336817,0.02939495,0.01836376,0.01619054,-2.31400275,-2.19790983,13.03460693,0.31763834,0.00000000,0.00000000,1.50000000,0.06529400,0.00000000,1.00000000,79.42472076,21.76383400,-1191183488.00000000,0.00000000,-0.00012206,207.00000000,-0.01577286,0.19834222,10.10320950,-0.06180810,-0.06922214,-0.08879806,0.22126256,0.01801521,-0.54800177,0.00969809,-0.01434635,0.60316503,0.43925035,-0.62959766,11.48174858,0.99944282,0.02738148,0.01908191,0.00052278,0.00483465,-0.00550577,0.02787732,-0.07918758,-0.08924903,0.00268499,22217612.00000000,-0.00000000,3146443013270536192.00000000,-4283.58056641,-3212832624867278848.00000000,2268976521773318144.00000000,-15326346240.00000000,0.00000000,75.03144836,-40536884887158784.00000000,17729961695711069818766217105637376.00000000,0.00000000
-2.06749344,-0.73463017,11.64640045,0.05001858,-0.00106423,0.01170648,0.25003052,0.05407715,-0.48577881,0.00000000,-0.00000000,0.31000000,0.01600000,0.00700000,-0.00800000,0.99906212,0.01542203,0.01035626,-0.03911407,-0.01646270,0.02433977,-0.00810311,-0.23159194,0.33218610,-0.14751433,-0.00792999,0.00022295,-0.04076010,0.11894131,0.03005705,-0.00336817,0.02939495,0.01836376,0.01619054,-2.31984162,-2.19605184,13.03523827,0.31587398,0.00000000,0.00000000,1.50000000,0.06658600,0.00000000,1.00000000,79.42655945,21.58739853,-1191183488.00000000,0.00000000,-0.00012206,207.00000000,-0.05116139,0.19366810,10.10485554,-0.05958509,-0.06981432,-0.08679767,0.22219686,0.01903116,-0.54643053,0.00987762,-0.01460386,0.60324126,0.43957591,-0.62983823,11.48162174,0.99944222,0.02739222,0.01909622,0.00052338,0.00493069,-0.00561630,0.02845931,-0.07917311,-0.08923636,0.00273616,22217612.00000000,-0.00000000,3146443013270536192.00000000,-4283.58056641,-3212832624867278848.00000000,2268976521773318144.00000000,-15326346240.00000000,0.00000000,75.03144836,-40536884887158784.00000000,17729961695711069818766217105637376.00000000,0.00000000
-2.59154558,0.10528901,9.63633728,0.04150478,0.02234873,0.08088111,0.25003052,0.05407715,-0.48577881,0.00000000,-0.00000000,0.31000000,0.01600000,0.00700000,-0.00800000,0.99906206,0.01540354,0.01033236,-0.03912970,-0.01662667,0.02457488,-0.00820739,-0.23159124,0.33208081,-0.14729027,-0.00792999,0.00022295,-0.04076010,0.11894131,0.03005705,-0.00336817,0.02939495,0.01836376,0.01619054,-2.32608128,-2.19355106,13.03555202,0.31322661,0.00000000,0.00000000,1.50000000,0.06729400,0.00000000,1.00000000,79.42747498,21.32266045,-1191183488.00000000,0.00000000,-0.00012206,207.00000000,-0.08958069,0.18518613,10.11235714,-0.05701838,-0.06995172,-0.08438662,0.22318801,0.02013251,-0.54469639,0.00997600,-0.01474493,0.60328299,0.43980432,-0.62996322,11.48153973,0.99944186,0.02739783,0.01910625,0.00052376,0.00498331,-0.00567684,0.02877815,-0.07916516,-0.08922939,0.00276421,22217612.00000000,-0.00000000,3146443013270536192.00000000,-4283.58056641,-3212832624867278848.00000000,2268976521773318144.00000000,-15326346240.00000000,0.00000000,75.03144836,-40536884887158784.00000000,17729961695711069818766217105637376.00000000,0.00000000
-1.45250976,-0.12921834,7.41330385,0.04469746,0.07343154,0.10110139,0.25003052,0.05407715,-0.48577881,0.00000000,-0.00000000,0.31000000,0.01600000,0.00700000,-0.00800000,0.99906194,0.01537884,0.01029867,-0.03915034,-0.01685853,0.02490713,-0.00835451,-0.23163305,0.33192545,-0.14696798,-0.00792999,0.00022295,-0.04076010,0.11894131,0.03005705,-0.00336817,0.02939495,0.01836376,0.01619054,-2.33280325,-2.19059610,13.03594971,0.30942661,0.00000000,0.00000000,1.50000000,0.06829500,0.00000000,1.00000000,79.42863464,20.94266129,-1191183488.00000000,0.00000000,-0.00012206,207.00000000,-0.13111688,0.17504075,10.11725616,-0.05416004,-0.06957555,-0.08143512,0.22422425,0.02130504,-0.54282176,0.01011512,-0.01494428,0.60334182,0.44020438,-0.63012791,11.48141098,0.99944133,0.02740527,0.01912381,0.00052439,0.00505770,-0.00576242,0.02922879,-0.07915390,-0.08921949,0.00280389,22217612.00000000,-0.00000000,3146443013270536192.00000000,-4283.58056641,-3212832624867278848.00000000,2268976521773318144.00000000,-15326346240.00000000,0.00000000,75.03144836,-40536884887158784.00000000,17729961695711069818766217105637376.00000000,0.00000000
-0.65566343,-0.41637018,8.10725403,0.04363323,0.12557857,0.04150478,0.25033569,0.05493164,-0.48590088,0.00000000,-0.00000000,0.31000000,0.01600000,0.00700000,-0.00800000,0.99906188,0.01534905,0.01025579,-0.03917474,-0.01715771,0.02533538,-0.00854371,-0.23174506,0.33171433,-0.14655694,-0.00792999,0.00022295,-0.04076010,0.11894131,0.03005705,-0.00336817,0.02939495,0.01836376,0.01619054,-2.34007764,-2.18744016,13.03643608,0.30453411,0.00000000,0.00000000,1.50000000,0.06958600,0.00000000,1.00000000,79.43005371,20.45341110,-1191183488.00000000,0.00000000,-0.00012206,207.00000000,-0.17433710,0.16252682,10.11309624,-0.05105345,-0.06853062,-0.07797883,0.22529566,0.02253656,-0.54083019,0.01029463,-0.01520123,0.60341752,0.44082510,-0.63032079,11.48125362,0.99944061,0.02741400,0.01915098,0.00052530,0.00515366,-0.00587276,0.02980972,-0.07913931,-0.08920662,0.00285509,22217612.00000000,-0.00000000,3146443013270536192.00000000,-4283.58056641,-3212832624867278848.00000000,2268976521773318144.00000000,-15326346240.00000000,0.00000000,75.03144836,-40536884887158784.00000000,17729961695711069818766217105637376.00000000,0.00000000
0.41637018,-0.30150944,10.57915306,0.04150478,0.14686307,0.00851380,0.25033569,0.05493164,-0.48590088,0.00000000,-0.00000000,0.31000000,0.01600000,0.00700000,-0.00800000,0.99906188,0.01533392,0.01023287,-0.03918679,-0.01732185,0.02557014,-0.00864732,-0.23183869,0.33159104,-0.14633854,-0.00792999,0.00022295,-0.04076010,0.11894131,0.03005705,-0.00336817,0.02939495,0.01836376,0.01619054,-2.34798241,-2.18450832,13.03669930,0.29893926,0.00000000,0.00000000,1.50000000,0.07029400,0.00000000,1.00000000,79.43081665,19.89392471,-1191183488.00000000,0.00000000,-0.00012206,207.00000000,-0.21815097,0.14779246,10.10268211,-0.04774543,-0.06666975,-0.07421425,0.22639310,0.02381690,-0.53874290,0.01039311,-0.01534209,0.60345894,0.44122353,-0.63041282,11.48118305,0.99944013,0.02741815,0.01916838,0.00052586,0.00520628,-0.00593325,0.03012823,-0.07913131,-0.08919954,0.00288318,22217612.00000000,-0.00000000,3146443013270536192.00000000,-4283.58056641,-3212832624867278848.00000000,2268976521773318144.00000000,-15326346240.00000000,0.00000000,75.03144836,-40536884887158784.00000000,17729961695711069818766217105637376.00000000,0.00000000
1.96220434,0.05503744,11.32814026,0.04363323,0.15005575,0.00106423,0.25033569,0.05493164,-0.48590088,0.00000000,-0.00000000,0.31000000,0.01600000,0.00700000,-0.00800000,0.99906188,0.01531433,0.01020173,-0.03920186,-0.01755410,0.02590188,-0.00879351,-0.23201326,0.33140591,-0.14603966,-0.00792999,0.00022295,-0.04076010,0.11894131,0.03005705,-0.00336817,0.02939495,0.01836376,0.01619054,-2.35655284,-2.18214059,13.03706360,0.29299825,0.00000000,0.00000000,1.50000000,0.07129500,0.00000000,1.00000000,79.43188477,19.29982376,-1191183488.00000000,0.00000000,-0.00012206,207.00000000,-0.25845683,0.13302666,10.09233379,-0.04428622,-0.06393422,-0.07027257,0.22750808,0.02513526,-0.53658015,0.01053246,-0.01554113,0.60351741,0.44186297,-0.63052344,11.48110390,0.99943948,0.02742313,0.01919625,0.00052672,0.00528070,-0.00601873,0.03057842,-0.07911996,-0.08918946,0.00292292,22217612.00000000,-0.00000000,3146443013270536192.00000000,-4283.58056641,-3212832624867278848.00000000,2268976521773318144.00000000,-15326346240.00000000,0.00000000,75.03144836,-40536884887158784.00000000,17729961695711069818766217105637376.00000000,0.00000000
2.88348317,-0.12921834,9.64590931,0.04044056,0.14154194,-0.02128450,0.24899292,0.05468750,-0.48370361,0.00000000,-0.00000000,0.31000000,0.01600000,0.00700000,-0.00800000,0.99906194,0.01529149,0.01016375,-0.03921868,-0.01785397,0.02632940,-0.00898156,-0.23227802,0.33115390,-0.14566644,-0.00792999,0.00022295,-0.04076010,0.11894131,0.03005705,-0.00336817,0.02939495,0.01836376,0.01619054,-2.36581302,-2.18066239,13.03752327,0.28689054,0.00000000,0.00000000,1.50000000,0.07258600,0.00000000,1.00000000,79.43321991,18.68905258,-1191183488.00000000,0.00000000,-0.00012206,207.00000000,-0.28725642,0.11967991,10.08262825,-0.04071522,-0.06034694,-0.06624796,0.22863141,0.02648049,-0.53435934,0.01071238,-0.01579764,0.60359263,0.44275945,-0.63064176,11.48102951,0.99943858,0.02742842,0.01923526,0.00052789,0.00537674,-0.00612894,0.03115880,-0.07910530,-0.08917636,0.00297418,22217612.00000000,-0.00000000,3146443013270536192.00000000,-4283.58056641,-3212832624867278848.00000000,2268976521773318144.00000000,-15326346240.00000000,0.00000000,75.03144836,-40536884887158784.00000000,17729961695711069818766217105637376.00000000,0.00000000
3.64443564,-0.69873619,8.66241455,0.03405520,0.14473462,-0.04682591,0.24899292,0.05468750,-0.48370361,0.00000000,-0.00000000,0.31000000,0.01600000,0.00700000,-0.00800000,0.99906200,0.01528032,0.01014439,-0.03922650,-0.01801853,0.02656375,-0.00908456,-0.23243131,0.33100724,-0.14547065,-0.00792999,0.00022295,-0.04076010,0.11894131,0.03005705,-0.00336817,0.02939495,0.01836376,0.01619054,-2.37577748,-2.18049192,13.03777504,0.28098723,0.00000000,0.00000000,1.50000000,0.07329400,0.00000000,1.00000000,79.43395233,18.09872246,-1191183488.00000000,0.00000000,-0.00012206,207.00000000,-0.29704893,0.10630314,10.07024002,-0.03707393,-0.05597783,-0.06232665,0.22975366,0.02784235,-0.53209454,0.01081112,-0.01593825,0.60363382,0.44326577,-0.63069123,11.48100758,0.99943805,0.02743061,0.01925726,0.00052854,0.00542941,-0.00618934,0.03147702,-0.07909724,-0.08916915,0.00300230,22217612.00000000,-0.00000000,3146443013270536192.00000000,-4283.58056641,-3212832624867278848.00000000,2268976521773318144.00000000,-15326346240.00000000,0.00000000,75.03144836,-40536884887158784.00000000,17729961695711069818766217105637376.00000000,0.00000000
3.03663087,-0.74180895,9.61480141,0.03618366,0.14367040,-0.07023886,0.24899292,0.05468750,-0.48370361,0.00000000,-0.00000000,0.31000000,0.01600000,0.00700000,-0.00800000,0.99906212,0.01526650,0.01011948,-0.03923574,-0.01825117,0.02689454,-0.00922977,-0.23263799,0.33078420,-0.14520904,-0.00792999,0.00022295,-0.04076010,0.11894131,0.03005705,-0.00336817,0.02939495,0.01836376,0.01619054,-2.38644409,-2.18187499,13.03813171,0.27585903,0.00000000,0.00000000,1.50000000,0.07429400,0.00000000,1.00000000,79.43499756,17.58590317,-1191183488.00000000,0.00000000,-0.00012206,207.00000000,-0.28517148,0.09052081,10.05603027,-0.03339963,-0.05092831,-0.05872243,0.23086779,0.02921173,-0.52980053,0.01095070,-0.01613672,0.60369194,0.44396347,-0.63073230,11.48100853,0.99943745,0.02743237,0.01928753,0.00052940,0.00550384,-0.00627463,0.03192636,-0.07908586,-0.08915891,0.00304203,22217612.00000000,-0.00000000,3146443013270536192.00000000,-4283.58056641,-3212832624867278848.00000000,2268976521773318144.00000000,-15326346240.00000000,0.00000000,75.03144836,-40536884887158784.00000000,17729961695711069818766217105637376.00000000,0.00000000
1.76359093,0.65566343,11.17020702,0.03831211,0.12345012,-0.05853238,0.24868774,0.05419922,-0.48260498,0.00000000,-0.00000000,0.31000000,0.01600000,0.00700000,-0.00800000,0.99906224,0.01525119,0.01009076,-0.03924558,-0.01855204,0.02732151,-0.00941696,-0.23286991,0.33047193,-0.14488649,-0.00792999,0.00022295,-0.04076010,0.11894131,0.03005705,-0.00336817,0.02939495,0.01836376,0.01619054,-2.39781213,-2.18499160,13.03859043,0.27174890,0.00000000,0.00000000,1.50000000,0.07558600,0.00000000,1.00000000,79.43633270,17.17488861,-1191183488.00000000,0.00000000,-0.00012206,207.00000000,-0.25578707,0.07341465,10.04521179,-0.02971236,-0.04535320,-0.05553066,0.23196755,0.03057974,-0.52749014,0.01113122,-0.01639291,0.60376680,0.44480208,-0.63074148,11.48104477,0.99943674,0.02743267,0.01932386,0.00053040,0.00560005,-0.00638478,0.03250671,-0.07907113,-0.08914560,0.00309336,22217612.00000000,-0.00000000,3146443013270536192.00000000,-4283.58056641,-3212832624867278848.00000000,2268976521773318144.00000000,-15326346240.00000000,0.00000000,75.03144836,-40536884887158784.00000000,17729961695711069818766217105637376.00000000,0.00000000
1.49797547,1.07442653,10.79212379,0.03405520,0.11280787,-0.07343154,0.24868774,0.05419922,-0.48260498,0.00000000,-0.00000000,0.31000000,0.01600000,0.00700000,-0.00800000,0.99906230,0.01524420,0.01007705,-0.03924996,-0.01871698,0.02755535,-0.00951942,-0.23296990,0.33028871,-0.14471456,-0.00792999,0.00022295,-0.04076010,0.11894131,0.03005705,-0.00336817,0.02939495,0.01836376,0.01619054,-2.40985560,-2.19003487,13.03882885,0.26856002,0.00000000,0.00000000,1.50000000,0.07629400,0.00000000,1.00000000,79.43702698,16.85600281,-1191183488.00000000,0.00000000,-0.00012206,207.00000000,-0.21585745,0.05906436,10.03966808,-0.02603657,-0.03943228,-0.05272595,0.23304646,0.03193765,-0.52517247,0.01123019,-0.01653321,0.60380781,0.44521293,-0.63072455,11.48107433,0.99943644,0.02743185,0.01934165,0.00053088,0.00565278,-0.00644510,0.03282468,-0.07906305,-0.08913828,0.00312150,22217612.00000000,-0.00000000,3146443013270536192.00000000,-4283.58056641,-3212832624867278848.00000000,2268976521773318144.00000000,-15326346240.00000000,0.00000000,75.03144836,-40536884887158784.00000000,17729961695711069818766217105637376.00000000,0.00000000
1.67265952,0.89734954,9.29175568,0.02022028,0.14047772,-0.13409238,0.24868774,0.05419922,-0.48260498,0.00000000,-0.00000000,0.31000000,0.01600000,0.00700000,-0.00800000,0.99906242,0.01523625,0.01006069,-0.03925493,-0.01895005,0.02788537,-0.00966389,-0.23306611,0.33001724,-0.14447802,-0.00792999,0.00022295,-0.04076010,0.11894131,0.03005705,-0.00336817,0.02939495,0.01836376,0.01619054,-2.42254734,-2.19706130,13.03914547,0.26641285,0.00000000,0.00000000,1.50000000,0.07729400,0.00000000,1.00000000,79.43795013,16.64128494,-1191183488.00000000,0.00000000,-0.00012206,207.00000000,-0.16954516,0.04963174,10.03463745,-0.02242319,-0.03324885,-0.05034986,0.23409979,0.03327844,-0.52285850,0.01137003,-0.01673122,0.60386556,0.44571233,-0.63067752,11.48112965,0.99943608,0.02742967,0.01936323,0.00053143,0.00572729,-0.00653028,0.03327369,-0.07905164,-0.08912791,0.00316124,22217612.00000000,-0.00000000,3146443013270536192.00000000,-4283.58056641,-3212832624867278848.00000000,2268976521773318144.00000000,-15326346240.00000000,0.00000000,75.03144836,-40536884887158784.00000000,17729961695711069818766217105637376.00000000,0.00000000
1.28261161,0.19622043,8.99024582,0.00744958,0.16921180,-0.14047772,0.24911499,0.05712891,-0.48236084,0.00000000,-0.00000000,0.31000000,0.01600000,0.00700000,-0.00800000,0.99906254,0.01522841,0.01004363,-0.03926014,-0.01925125,0.02831128,-0.00985018,-0.23312642,0.32965514,-0.14418581,-0.00792999,0.00022295,-0.04076010,0.11894131,0.03005705,-0.00336817,0.02939495,0.01836376,0.01619054,-2.43583441,-2.20616221,13.03954124,0.26557657,0.00000000,0.00000000,1.50000000,0.07858600,0.00000000,1.00000000,79.43910217,16.55765533,-1191183488.00000000,0.00000000,-0.00012206,207.00000000,-0.11890647,0.04433141,10.02550030,-0.01893838,-0.02675974,-0.04852546,0.23512532,0.03460005,-0.52056056,0.01155075,-0.01698677,0.60394007,0.44624248,-0.63059574,11.48123074,0.99943572,0.02742586,0.01938607,0.00053198,0.00582358,-0.00664029,0.03385364,-0.07903689,-0.08911446,0.00321260,22217612.00000000,-0.00000000,3146443013270536192.00000000,-4283.58056641,-3212832624867278848.00000000,2268976521773318144.00000000,-15326346240.00000000,0.00000000,75.03144836,-40536884887158784.00000000,17729961695711069818766217105637376.00000000,0.00000000
2.33550167,-1.01699615,10.30157280,0.01064225,0.17134026,-0.09045914,0.24911499,0.05712891,-0.48236084,0.00000000,-0.00000000,0.31000000,0.01600000,0.00700000,-0.00800000,0.99906254,0.01522538,0.01003664,-0.03926251,-0.01941653,0.02854487,-0.00995230,-0.23312151,0.32945102,-0.14403406,-0.00792999,0.00022295,-0.04076010,0.11894131,0.03005705,-0.00336817,0.02939495,0.01836376,0.01619054,-2.44961190,-2.21749640,13.03975677,0.26595977,0.00000000,0.00000000,1.50000000,0.07929500,0.00000000,1.00000000,79.43972778,16.59597588,-1191183488.00000000,0.00000000,-0.00012206,207.00000000,-0.06449571,0.04052006,10.01462555,-0.01562367,-0.01992720,-0.04724227,0.23612198,0.03590387,-0.51828980,0.01164992,-0.01712692,0.60398096,0.44646499,-0.63054091,11.48130512,0.99943560,0.02742330,0.01939561,0.00053219,0.00587643,-0.00670064,0.03417184,-0.07902880,-0.08910706,0.00324079,22217612.00000000,-0.00000000,3146443013270536192.00000000,-4283.58056641,-3212832624867278848.00000000,2268976521773318144.00000000,-15326346240.00000000,0.00000000,75.03144836,-40536884887158784.00000000,17729961695711069818766217105637376.00000000,0.00000000
2.81408811,-1.48361790,11.17499352,0.01809183,0.15324843,-0.08407379,0.24911499,0.05712891,-0.48236084,0.00000000,-0.00000000,0.31000000,0.01600000,0.00700000,-0.00800000,0.99906254,0.01522283,0.01003027,-0.03926540,-0.01964935,0.02887369,-0.01009599,-0.23305529,0.32915309,-0.14382842,-0.00792999,0.00022295,-0.04076010,0.11894131,0.03005705,-0.00336817,0.02939495,0.01836376,0.01619054,-2.46381855,-2.23115444,13.04004955,0.26730266,0.00000000,0.00000000,1.50000000,0.08029400,0.00000000,1.00000000,79.44058228,16.73026657,-1191183488.00000000,0.00000000,-0.00012206,207.00000000,-0.00420764,0.03460981,10.00787544,-0.01247902,-0.01281034,-0.04638743,0.23708813,0.03718776,-0.51605576,0.01178961,-0.01732421,0.60403842,0.44667169,-0.63044477,11.48142815,0.99943554,0.02741883,0.01940438,0.00053235,0.00595090,-0.00678565,0.03462011,-0.07901740,-0.08909662,0.00328050,22217612.00000000,-0.00000000,3146443013270536192.00000000,-4283.58056641,-3212832624867278848.00000000,2268976521773318144.00000000,-15326346240.00000000,0.00000000,75.03144836,-40536884887158784.00000000,17729961695711069818766217105637376.00000000,0.00000000
2.28764319,-0.80163229,10.43557739,0.00957803,0.10748674,-0.10216562,0.24832153,0.05523682,-0.48236084,0.00000000,-0.00000000,0.31000000,0.01600000,0.00700000,-0.00800000,0.99906248,0.01522163,0.01002663,-0.03926878,-0.01995047,0.02929876,-0.01028162,-0.23288403,0.32874808,-0.14356647,-0.00792999,0.00022295,-0.04076010,0.11894131,0.03005705,-0.00336817,0.02939495,0.01836376,0.01619054,-2.47840023,-2.24717450,13.04039669,0.26955175,0.00000000,0.00000000,1.50000000,0.08158700,0.00000000,1.00000000,79.44159698,16.95517540,-1191183488.00000000,0.00000000,-0.00012206,207.00000000,0.06304971,0.02475126,10.00634193,-0.00950921,-0.00555494,-0.04593267,0.23802061,0.03844569,-0.51386636,0.01197028,-0.01757926,0.60411263,0.44678506,-0.63028485,11.48159409,0.99943566,0.02741149,0.01940904,0.00053233,0.00604730,-0.00689565,0.03520016,-0.07900266,-0.08908311,0.00333191,22217612.00000000,-0.00000000,3146443013270536192.00000000,-4283.58056641,-3212832624867278848.00000000,2268976521773318144.00000000,-15326346240.00000000,0.00000000,75.03144836,-40536884887158784.00000000,17729961695711069818766217105637376.00000000,0.00000000
2.42404032,0.15554059,9.28457642,-0.00319268,0.06278928,-0.10535829,0.24832153,0.05523682,-0.48236084,0.00000000,-0.00000000,0.31000000,0.01600000,0.00700000,-0.00800000,0.99906242,0.01522205,0.01002714,-0.03927059,-0.02011502,0.02953102,-0.01038302,-0.23273960,0.32851353,-0.14342530,-0.00792999,0.00022295,-0.04076010,0.11894131,0.03005705,-0.00336817,0.02939495,0.01836376,0.01619054,-2.49323463,-2.26547885,13.04056835,0.27267960,0.00000000,0.00000000,1.50000000,0.08229400,0.00000000,1.00000000,79.44209290,17.26795959,-1191183488.00000000,0.00000000,-0.00012206,207.00000000,0.13614987,0.01190726,10.00535965,-0.00675489,0.00163485,-0.04587289,0.23891582,0.03967135,-0.51172817,0.01206901,-0.01771861,0.60415322,0.44675550,-0.63017362,11.48169041,0.99943584,0.02740644,0.01940761,0.00053219,0.00610000,-0.00695579,0.03551728,-0.07899459,-0.08907571,0.00336002,22217612.00000000,-0.00000000,3146443013270536192.00000000,-4283.58056641,-3212832624867278848.00000000,2268976521773318144.00000000,-15326346240.00000000,0.00000000,75.03144836,-40536884887158784.00000000,17729961695711069818766217105637376.00000000,0.00000000
1.88563049,0.86145556,9.39465141,-0.00212845,0.04469746,-0.09471604,0.24832153,0.05523682,-0.48236084,0.00000000,-0.00000000,0.31000000,0.01600000,0.00700000,-0.00800000,0.99906224,0.01522402,0.01003127,-0.03927322,-0.02034748,0.02985918,-0.01052625,-0.23245890,0.32816246,-0.14323159,-0.00792999,0.00022295,-0.04076010,0.11894131,0.03005705,-0.00336817,0.02939495,0.01836376,0.01619054,-2.50824523,-2.28592968,13.04079247,0.27648577,0.00000000,0.00000000,1.50000000,0.08329400,0.00000000,1.00000000,79.44274902,17.64857674,-1191183488.00000000,0.00000000,-0.00012206,207.00000000,0.21385725,-0.00149808,10.00145054,-0.00424385,0.00855986,-0.04611222,0.23977172,0.04086038,-0.50964713,0.01220849,-0.01791551,0.60421056,0.44657585,-0.62998122,11.48183918,0.99943626,0.02739774,0.01939959,0.00053180,0.00617454,-0.00704083,0.03596574,-0.07898320,-0.08906528,0.00339978,22217612.00000000,-0.00000000,3146443013270536192.00000000,-4283.58056641,-3212832624867278848.00000000,2268976521773318144.00000000,-15326346240.00000000,0.00000000,75.03144836,-40536884887158784.00000000,17729961695711069818766217105637376.00000000,0.00000000
-0.15314765,0.90931422,10.38053989,0.00851380,0.04682591,-0.07768843,0.24972534,0.05480957,-0.48168945,0.00000000,-0.00000000,0.31000000,0.01600000,0.00700000,-0.00800000,0.99906194,0.01522823,0.01004077,-0.03927683,-0.02064745,0.03028288,-0.01071114,-0.23199637,0.32768619,-0.14298993,-0.00792999,0.00022295,-0.04076010,0.11894131,0.03005705,-0.00336817,0.02939495,0.01836376,0.01619054,-2.52337527,-2.30834889,13.04106617,0.28062937,0.00000000,0.00000000,1.50000000,0.08458700,0.00000000,1.00000000,79.44355011,18.06293488,-1191183488.00000000,0.00000000,-0.00012206,207.00000000,0.29194188,-0.01275747,9.99662495,-0.00194989,0.01508334,-0.04652445,0.24058919,0.04200805,-0.50762820,0.01238847,-0.01816973,0.60428447,0.44616359,-0.62969142,11.48204994,0.99943697,0.02738467,0.01938138,0.00053105,0.00627088,-0.00715078,0.03654548,-0.07896850,-0.08905181,0.00345120,22217612.00000000,-0.00000000,3146443013270536192.00000000,-4283.58056641,-3212832624867278848.00000000,2268976521773318144.00000000,-15326346240.00000000,0.00000000,75.03144836,-40536884887158784.00000000,17729961695711069818766217105637376.00000000,0.00000000
-1.42140174,0.31108117,10.16996193,0.01170648,0.04363323,-0.07662421,0.24972534,0.05480957,-0.48168945,0.00000000,-0.00000000,0.31000000,0.01600000,0.00700000,-0.00800000,0.99906164,0.01523136,0.01004808,-0.03927897,-0.02081149,0.03051469,-0.01081228,-0.23169349,0.32741636,-0.14286083,-0.00792999,0.00022295,-0.04076010,0.11894131,0.03005705,-0.00336817,0.02939495,0.01836376,0.01619054,-2.53851748,-2.33242512,13.04120255,0.28488708,0.00000000,0.00000000,1.50000000,0.08529500,0.00000000,1.00000000,79.44394684,18.48870659,-1191183488.00000000,0.00000000,-0.00012206,207.00000000,0.36272395,-0.02003635,9.99381542,0.00016801,0.02111869,-0.04705382,0.24137039,0.04310856,-0.50567508,0.01248689,-0.01830881,0.60432494,0.44584832,-0.62951630,11.48217201,0.99943745,0.02737680,0.01936751,0.00053052,0.00632363,-0.00721099,0.03686288,-0.07896045,-0.08904446,0.00347935,22217612.00000000,-0.00000000,3146443013270536192.00000000,-4283.58056641,-3212832624867278848.00000000,2268976521773318144.00000000,-15326346240.00000000,0.00000000,75.03144836,-40536884887158784.00000000,17729961695711069818766217105637376.00000000,0.00000000
-2.29482198,-0.05982330,9.21278858,-0.00319268,0.03831211,-0.06172506,0.24972534,0.05480957,-0.48168945,0.00000000,-0.00000000,0.31000000,0.01600000,0.00700000,-0.00800000,0.99906135,0.01523685,0.01006112,-0.03928229,-0.02104270,0.03084172,-0.01095497,-0.23120892,0.32702768,-0.14268228,-0.00792999,0.00022295,-0.04076010,0.11894131,0.03005705,-0.00336817,0.02939495,0.01836376,0.01619054,-2.55363774,-2.35793114,13.04137993,0.28929764,0.00000000,0.00000000,1.50000000,0.08629500,0.00000000,1.00000000,79.44446564,18.92976379,-1191183488.00000000,0.00000000,-0.00012206,207.00000000,0.41972238,-0.02310471,9.99132919,0.00210385,0.02661337,-0.04769927,0.24211609,0.04415895,-0.50379109,0.01262562,-0.01850503,0.60438198,0.44530025,-0.62925488,11.48235321,0.99943823,0.02736503,0.01934346,0.00052963,0.00639810,-0.00729602,0.03731112,-0.07894910,-0.08903410,0.00351912,22217612.00000000,-0.00000000,3146443013270536192.00000000,-4283.58056641,-3212832624867278848.00000000,2268976521773318144.00000000,-15326346240.00000000,0.00000000,75.03144836,-40536884887158784.00000000,17729961695711069818766217105637376.00000000,0.00000000
-1.79948497,-0.03350105,10.33028793,-0.00425690,0.04789013,-0.03192675,0.24905396,0.05499268,-0.48114014,0.00000000,-0.00000000,0.31000000,0.01600000,0.00700000,-0.00800000,0.99906081,0.01524518,0.01008113,-0.03928699,-0.02134031,0.03126326,-0.01113888,-0.23053105,0.32652202,-0.14245830,-0.00792999,0.00022295,-0.04076010,0.11894131,0.03005705,-0.00336817,0.02939495,0.01836376,0.01619054,-2.56868839,-2.38466072,13.04159164,0.29373014,0.00000000,0.00000000,1.50000000,0.08758600,0.00000000,1.00000000,79.44508362,19.37301254,-1191183488.00000000,0.00000000,-0.00012206,207.00000000,0.46003988,-0.02289576,9.98714828,0.00382507,0.03158854,-0.04839837,0.24282576,0.04515969,-0.50197828,0.01280419,-0.01875796,0.60445559,0.44449759,-0.62890977,11.48260117,0.99943930,0.02734949,0.01930825,0.00052837,0.00649417,-0.00740580,0.03788968,-0.07893448,-0.08902081,0.00357047,22217612.00000000,-0.00000000,3146443013270536192.00000000,-4283.58056641,-3212832624867278848.00000000,2268976521773318144.00000000,-15326346240.00000000,0.00000000,75.03144836,-40536884887158784.00000000,17729961695711069818766217105637376.00000000,0.00000000
-0.62455529,0.25843668,11.44060898,0.00106423,0.05746816,0.02554140,0.24905396,0.05499268,-0.48114014,0.00000000,-0.00000000,0.31000000,0.01600000,0.00700000,-0.00800000,0.99906051,0.01525034,0.01009369,-0.03928974,-0.02150325,0.03149424,-0.01123965,-0.23014146,0.32624468,-0.14233769,-0.00792999,0.00022295,-0.04076010,0.11894131,0.03005705,-0.00336817,0.02939495,0.01836376,0.01619054,-2.58354664,-2.41230559,13.04169655,0.29767936,0.00000000,0.00000000,1.50000000,0.08829400,0.00000000,1.00000000,79.44538879,19.76793671,-1191183488.00000000,0.00000000,-0.00012206,207.00000000,0.48497188,-0.02094292,9.98450184,0.00533980,0.03614230,-0.04896242,0.24349897,0.04611247,-0.50023711,0.01290195,-0.01889654,0.60449588,0.44402498,-0.62872022,11.48274136,0.99943995,0.02734094,0.01928753,0.00052763,0.00654685,-0.00746602,0.03820693,-0.07892647,-0.08901355,0.00359863,22217612.00000000,-0.00000000,3146443013270536192.00000000,-4283.58056641,-3212832624867278848.00000000,2268976521773318144.00000000,-15326346240.00000000,0.00000000,75.03144836,-40536884887158784.00000000,17729961695711069818766217105637376.00000000,0.00000000
-2.69204855,-0.46183589,8.97349548,0.00851380,0.03192675,0.11067942,0.24905396,0.05499268,-0.48114014,0.00000000,-0.00000000,0.31000000,0.01600000,0.00700000,-0.00800000,0.99906003,0.01525839,0.01011350,-0.03929367,-0.02173283,0.03182009,-0.01138182,-0.22958049,0.32585314,-0.14216763,-0.00792999,0.00022295,-0.04076010,0.11894131,0.03005705,-0.00336817,0.02939495,0.01836376,0.01619054,-2.59819245,-2.44074535,13.04182529,0.30046177,0.00000000,0.00000000,1.50000000,0.08929400,0.00000000,1.00000000,79.44576263,20.04617691,-1191183488.00000000,0.00000000,-0.00012206,207.00000000,0.49521369,-0.01977613,9.98442841,0.00668985,0.04033006,-0.04908890,0.24413569,0.04701795,-0.49856874,0.01303970,-0.01909206,0.60455275,0.44333756,-0.62845242,11.48293972,0.99944085,0.02732886,0.01925741,0.00052658,0.00662120,-0.00755108,0.03865497,-0.07891519,-0.08900333,0.00363841,22217612.00000000,-0.00000000,3146443013270536192.00000000,-4283.58056641,-3212832624867278848.00000000,2268976521773318144.00000000,-15326346240.00000000,0.00000000,75.03144836,-40536884887158784.00000000,17729961695711069818766217105637376.00000000,0.00000000
-1.33286321,0.18425578,5.53485203,0.01277070,-0.02873408,0.16176222,0.25027466,0.05578613,-0.47918701,0.00000000,-0.00000000,0.31000000,0.01600000,0.00700000,-0.00800000,0.99905938,0.01526967,0.01014146,-0.03929831,-0.02202852,0.03224044,-0.01156523,-0.22886153,0.32534617,-0.14195564,-0.00792999,0.00022295,-0.04076010,0.11894131,0.03005705,-0.00336817,0.02939495,0.01836376,0.01619054,-2.61262321,-2.46981502,13.04198647,0.30128321,0.00000000,0.00000000,1.50000000,0.09058600,0.00000000,1.00000000,79.44622803,20.12832069,-1191183488.00000000,0.00000000,-0.00012206,207.00000000,0.49037367,-0.02096601,9.97840500,0.00790841,0.04404400,-0.04846620,0.24473691,0.04787650,-0.49697262,0.01321711,-0.01934426,0.60462612,0.44245872,-0.62810379,11.48321438,0.99944204,0.02731311,0.01921886,0.00052522,0.00671721,-0.00766099,0.03923372,-0.07890063,-0.08899023,0.00368981,22217612.00000000,-0.00000000,3146443013270536192.00000000,-4283.58056641,-3212832624867278848.00000000,2268976521773318144.00000000,-15326346240.00000000,0.00000000,75.03144836,-40536884887158784.00000000,17729961695711069818766217105637376.00000000,0.00000000
-0.41397727,0.88777781,5.66167736,-0.01277070,-0.03724788,0.14686307,0.25027466,0.05578613,-0.47918701,0.00000000,-0.00000000,0.31000000,0.01600000,0.00700000,-0.00800000,0.99905902,0.01527628,0.01015784,-0.03930031,-0.02219028,0.03247059,-0.01166566,-0.22847798,0.32506889,-0.14185405,-0.00792999,0.00022295,-0.04076010,0.11894131,0.03005705,-0.00336817,0.02939495,0.01836376,0.01619054,-2.62674713,-2.49910522,13.04209805,0.29970568,0.00000000,0.00000000,1.50000000,0.09129400,0.00000000,1.00000000,79.44655609,19.97056770,-1191183488.00000000,0.00000000,-0.00012206,207.00000000,0.47573292,-0.02188222,9.95755672,0.00898004,0.04711470,-0.04695466,0.24530438,0.04868904,-0.49544576,0.01331417,-0.01948235,0.60466629,0.44199568,-0.62791348,11.48339653,0.99944264,0.02730443,0.01919849,0.00052450,0.00676981,-0.00772124,0.03955084,-0.07889266,-0.08898307,0.00371798,22217612.00000000,-0.00000000,3146443013270536192.00000000,-4283.58056641,-3212832624867278848.00000000,2268976521773318144.00000000,-15326346240.00000000,0.00000000,75.03144836,-40536884887158784.00000000,17729961695711069818766217105637376.00000000,0.00000000
-1.28261161,1.22039533,8.19579220,-0.00425690,-0.03405520,0.04789013,0.25027466,0.05578613,-0.47918701,0.00000000,-0.00000000,0.31000000,0.01600000,0.00700000,-0.00800000,0.99905860,0.01528613,0.01018213,-0.03930200,-0.02241824,0.03279527,-0.01180741,-0.22795577,0.32468307,-0.14174446,-0.00792999,0.00022295,-0.04076010,0.11894131,0.03005705,-0.00336817,0.02939495,0.01836376,0.01619054,-2.64053988,-2.52835727,13.04232693,0.29615781,0.00000000,0.00000000,1.50000000,0.09229400,0.00000000,1.00000000,79.44721985,19.61577988,-1191183488.00000000,0.00000000,-0.00012206,207.00000000,0.45605421,-0.01842913,9.92311859,0.00987052,0.04948607,-0.04470098,0.24583912,0.04945619,-0.49398741,0.01345094,-0.01967716,0.60472298,0.44137618,-0.62765479,11.48372746,0.99944353,0.02729243,0.01917109,0.00052352,0.00684406,-0.00780634,0.03999872,-0.07888144,-0.08897301,0.00375777,22217612.00000000,-0.00000000,3146443013270536192.00000000,-4283.58056641,-3212832624867278848.00000000,2268976521773318144.00000000,-15326346240.00000000,0.00000000,75.03144836,-40536884887158784.00000000,17729961695711069818766217105637376.00000000,0.00000000
0.57669663,2.92655611,9.67223167,0.03086253,-0.03618366,-0.01489915,0.24984741,0.05468750,-0.47955322,0.00000000,-0.00000000,0.31000000,0.01600000,0.00700000,-0.00800000,0.99905807,0.01529940,0.01021456,-0.03930244,-0.02271193,0.03321414,-0.01199043,-0.22731027,0.32420310,-0.14165567,-0.00792999,0.00022295,-0.04076010,0.11894131,0.03005705,-0.00336817,0.02939495,0.01836376,0.01619054,-2.65400124,-2.55732298,13.04273987,0.29146802,0.00000000,0.00000000,1.50000000,0.09358600,0.00000000,1.00000000,79.44842529,19.14680099,-1191183488.00000000,0.00000000,-0.00012206,207.00000000,0.43265143,-0.00691474,9.88142586,0.01063935,0.05117439,-0.04203613,0.24634197,0.05017775,-0.49259818,0.01362716,-0.01992849,0.60479617,0.44062731,-0.62735319,11.48427200,0.99944454,0.02727807,0.01913773,0.00052233,0.00693995,-0.00791631,0.04057737,-0.07886696,-0.08896010,0.00380918,22217612.00000000,-0.00000000,3146443013270536192.00000000,-4283.58056641,-3212832624867278848.00000000,2268976521773318144.00000000,-15326346240.00000000,0.00000000,75.03144836,-40536884887158784.00000000,17729961695711069818766217105637376.00000000,0.00000000
0.64369875,3.02705908,10.29918003,0.04256901,-0.05427548,0.00212845,0.24984741,0.05468750,-0.47955322,0.00000000,-0.00000000,0.31000000,0.01600000,0.00700000,-0.00800000,0.99905777,0.01530697,0.01023268,-0.03930168,-0.02287285,0.03344383,-0.01209085,-0.22697194,0.32395816,-0.14163797,-0.00792999,0.00022295,-0.04076010,0.11894131,0.03005705,-0.00336817,0.02939495,0.01836376,0.01619054,-2.66710448,-2.58559656,13.04303646,0.28618738,0.00000000,0.00000000,1.50000000,0.09429500,0.00000000,1.00000000,79.44929504,18.61873627,-1191183488.00000000,0.00000000,-0.00012206,207.00000000,0.40884963,0.01605613,9.83647060,0.01139980,0.05217613,-0.03920449,0.24681433,0.05085316,-0.49127784,0.01372371,-0.02006630,0.60483634,0.44024470,-0.62722063,11.48463821,0.99944508,0.02727147,0.01912054,0.00052173,0.00699256,-0.00797668,0.04089492,-0.07885902,-0.08895304,0.00383739,22217612.00000000,-0.00000000,3146443013270536192.00000000,-4283.58056641,-3212832624867278848.00000000,2268976521773318144.00000000,-15326346240.00000000,0.00000000,75.03144836,-40536884887158784.00000000,17729961695711069818766217105637376.00000000,0.00000000
-2.76862240,1.06964064,11.16781425,0.03192675,-0.10642251,0.04469746,0.24984741,0.05468750,-0.47955322,0.00000000,-0.00000000,0.31000000,0.01600000,0.00700000,-0.00800000,0.99905741,0.01531806,0.01025831,-0.03929915,-0.02309914,0.03376715,-0.01223236,-0.22651896,0.32364872,-0.14165512,-0.00792999,0.00022295,-0.04076010,0.11894131,0.03005705,-0.00336817,0.02939495,0.01836376,0.01619054,-2.67991209,-2.61291695,13.04354954,0.28054267,0.00000000,0.00000000,1.50000000,0.09529400,0.00000000,1.00000000,79.45079041,18.05426788,-1191183488.00000000,0.00000000,-0.00012206,207.00000000,0.38277933,0.04874519,9.79279613,0.01218620,0.05244034,-0.03628014,0.24725708,0.05148290,-0.49002627,0.01385949,-0.02026029,0.60489291,0.43974784,-0.62709802,11.48524857,0.99944568,0.02726471,0.01909798,0.00052099,0.00706666,-0.00806175,0.04134240,-0.07884786,-0.08894315,0.00387713,22217612.00000000,-0.00000000,3146443013270536192.00000000,-4283.58056641,-3212832624867278848.00000000,2268976521773318144.00000000,-15326346240.00000000,0.00000000,75.03144836,-40536884887158784.00000000,17729961695711069818766217105637376.00000000,0.00000000
-1.39986527,-0.69395030,13.13241196,0.01702760,-0.15218420,0.02234873,0.25027466,0.05664062,-0.47961426,0.00000000,-0.00000000,0.31000000,0.01600000,0.00700000,-0.00800000,0.99905705,0.01533290,0.01029104,-0.03929399,-0.02339110,0.03418485,-0.01241546,-0.22597231,0.32329851,-0.14171749,-0.00792999,0.00022295,-0.04076010,0.11894131,0.03005705,-0.00336817,0.02939495,0.01836376,0.01619054,-2.69246101,-2.63897896,13.04430485,0.27474675,0.00000000,0.00000000,1.50000000,0.09658600,0.00000000,1.00000000,79.45298767,17.47467422,-1191183488.00000000,0.00000000,-0.00012206,207.00000000,0.34954560,0.08423465,9.75991917,0.01296488,0.05187117,-0.03334983,0.24767058,0.05206968,-0.48884395,0.01403466,-0.02051091,0.60496616,0.43917498,-0.62702876,11.48612595,0.99944633,0.02725965,0.01907169,0.00052018,0.00716245,-0.00817180,0.04192123,-0.07883345,-0.08893042,0.00392853,22217612.00000000,-0.00000000,3146443013270536192.00000000,-4283.58056641,-3212832624867278848.00000000,2268976521773318144.00000000,-15326346240.00000000,0.00000000,75.03144836,-40536884887158784.00000000,17729961695711069818766217105637376.00000000,0.00000000
-3.39557076,-0.66762805,13.39802742,0.00106423,-0.12664279,-0.07555999,0.25027466,0.05664062,-0.47961426,0.00000000,-0.00000000,0.31000000,0.01600000,0.00700000,-0.00800000,0.99905688,0.01534129,0.01030844,-0.03929022,-0.02355089,0.03441364,-0.01251583,-0.22569975,0.32313243,-0.14175922,-0.00792999,0.00022295,-0.04076010,0.11894131,0.03005705,-0.00336817,0.02939495,0.01836376,0.01619054,-2.70471382,-2.66333890,13.04473495,0.26938736,0.00000000,0.00000000,1.50000000,0.09729400,0.00000000,1.00000000,79.45423889,16.93873596,-1191183488.00000000,0.00000000,-0.00012206,207.00000000,0.30856910,0.11741377,9.74738026,0.01369886,0.05044763,-0.03065269,0.24805495,0.05261749,-0.48773175,0.01413054,-0.02064818,0.60500634,0.43890944,-0.62703717,11.48662281,0.99944657,0.02725884,0.01905935,0.00051982,0.00721494,-0.00823213,0.04223846,-0.07882556,-0.08892347,0.00395669,22217612.00000000,-0.00000000,3146443013270536192.00000000,-4283.58056641,-3212832624867278848.00000000,2268976521773318144.00000000,-15326346240.00000000,0.00000000,75.03144836,-40536884887158784.00000000,17729961695711069818766217105637376.00000000,0.00000000
-4.49871254,-0.55994612,10.61265373,-0.00212845,-0.10110139,-0.15005575,0.25027466,0.05664062,-0.47961426,0.00000000,-0.00000000,0.31000000,0.01600000,0.00700000,-0.00800000,0.99905670,0.01535343,0.01033192,-0.03928382,-0.02377626,0.03473657,-0.01265763,-0.22536443,0.32293066,-0.14180969,-0.00792999,0.00022295,-0.04076010,0.11894131,0.03005705,-0.00336817,0.02939495,0.01836376,0.01619054,-2.71667385,-2.68574929,13.04531288,0.26522857,0.00000000,0.00000000,1.50000000,0.09829400,0.00000000,1.00000000,79.45592499,16.52285576,-1191183488.00000000,0.00000000,-0.00012206,207.00000000,0.25585911,0.14665182,9.75386047,0.01435818,0.04827668,-0.02846466,0.24841078,0.05312860,-0.48668924,0.01426576,-0.02084194,0.60506308,0.43862340,-0.62710798,11.48730659,0.99944681,0.02726030,0.01904581,0.00051948,0.00728906,-0.00831736,0.04268658,-0.07881442,-0.08891369,0.00399646,22217612.00000000,-0.00000000,3146443013270536192.00000000,-4283.58056641,-3212832624867278848.00000000,2268976521773318144.00000000,-15326346240.00000000,0.00000000,75.03144836,-40536884887158784.00000000,17729961695711069818766217105637376.00000000,0.00000000
-2.18953300,0.14836179,8.96392345,0.01064225,-0.10003716,-0.11706477,0.24789429,0.05541992,-0.47943115,0.00000000,-0.00000000,0.31000000,0.01600000,0.00700000,-0.00800000,0.99905652,0.01536942,0.01036039,-0.03927455,-0.02406698,0.03515350,-0.01284091,-0.22501427,0.32270685,-0.14185391,-0.00792999,0.00022295,-0.04076010,0.11894131,0.03005705,-0.00336817,0.02939495,0.01836376,0.01619054,-2.72833443,-2.70599866,13.04599857,0.26243195,0.00000000,0.00000000,1.50000000,0.09958600,0.00000000,1.00000000,79.45792389,16.24319458,-1191183488.00000000,0.00000000,-0.00012206,207.00000000,0.18862337,0.17079988,9.76792908,0.01492681,0.04545502,-0.02684965,0.24873687,0.05360381,-0.48571432,0.01444019,-0.02109210,0.60513633,0.43840283,-0.62726563,11.48814487,0.99944687,0.02726516,0.01903484,0.00051928,0.00738480,-0.00842751,0.04326565,-0.07880005,-0.08890110,0.00404783,22217612.00000000,-0.00000000,3146443013270536192.00000000,-4283.58056641,-3212832624867278848.00000000,2268976521773318144.00000000,-15326346240.00000000,0.00000000,75.03144836,-40536884887158784.00000000,17729961695711069818766217105637376.00000000,0.00000000
-0.85666972,2.53890109,11.00988102,0.01596338,-0.07768843,-0.05321126,0.24789429,0.05541992,-0.47943115,0.00000000,-0.00000000,0.31000000,0.01600000,0.00700000,-0.00800000,0.99905646,0.01537831,0.01037478,-0.03926907,-0.02422619,0.03538191,-0.01294135,-0.22487454,0.32260287,-0.14186583,-0.00792999,0.00022295,-0.04076010,0.11894131,0.03005705,-0.00336817,0.02939495,0.01836376,0.01619054,-2.73965335,-2.72382736,13.04633808,0.26055399,0.00000000,0.00000000,1.50000000,0.10029400,0.00000000,1.00000000,79.45891571,16.05539703,-1191183488.00000000,0.00000000,-0.00012206,207.00000000,0.11245836,0.19196731,9.78304386,0.01540149,0.04206563,-0.02565602,0.24903043,0.05404394,-0.48480418,0.01453571,-0.02122914,0.60517657,0.43837571,-0.62738550,11.48857689,0.99944681,0.02726934,0.01903294,0.00051930,0.00743727,-0.00848790,0.04358299,-0.07879218,-0.08889422,0.00407598,22217612.00000000,-0.00000000,3146443013270536192.00000000,-4283.58056641,-3212832624867278848.00000000,2268976521773318144.00000000,-15326346240.00000000,0.00000000,75.03144836,-40536884887158784.00000000,17729961695711069818766217105637376.00000000,0.00000000
-0.05264451,2.33310890,13.51528072,-0.01809183,-0.07768843,-0.10855097,0.24789429,0.05541992,-0.47943115,0.00000000,-0.00000000,0.31000000,0.01600000,0.00700000,-0.00800000,0.99879956,0.00569085,0.00163222,-0.04862561,0.00018828,0.00027228,-0.00018429,0.00441421,0.00146534,-0.00127069,-0.00793002,0.00022298,-0.04076010,0.11894142,0.03005707,-0.00336837,0.02939511,0.01836373,0.01619059,-2.75059819,-2.73913169,13.04675388,0.25956294,0.00000000,0.00000000,1.50000000,0.10129600,0.00000000,1.00000000,79.46012878,15.95629311,-1191183488.00000000,0.00000000,-0.00012206,207.00000000,0.03414597,0.21573789,9.80381107,0.01573852,0.03826721,-0.02487471,0.24929129,0.05445006,-0.48395661,-0.00011297,-0.00016337,0.60007375,-0.00071388,-0.01142038,11.16840267,0.99999988,0.00051128,-0.00003196,-0.00000002,0.00743504,-0.00848870,0.04394452,-0.07879736,-0.08889586,0.00412470,22217612.00000000,-0.00000000,3146443013270536192.00000000,-4283.58056641,-3212832624867278848.00000000,2268976521773318144.00000000,-15326346240.00000000,0.00000000,75.03144836,-40536884887158784.00000000,17729961695711069818766217105637376.00000000,0.00000000
2.05552864,-0.39483380,11.62007809,-0.02873408,-0.06811041,-0.26499206,0.24813843,0.05584717,-0.47973633,0.00000000,-0.00000000,0.31000000,0.01600000,0.00700000,-0.00800000,0.99879992,0.00570728,0.00165334,-0.04861527,0.00019380,0.00027436,-0.00018587,0.00427301,0.00161130,-0.00122200,-0.00793002,0.00022298,-0.04076010,0.11894142,0.03005707,-0.00336837,0.02939511,0.01836373,0.01619059,-2.76109624,-2.75187922,13.04717922,0.26040930,0.00000000,0.00000000,1.50000000,0.10258700,0.00000000,1.00000000,79.46136475,16.04092789,-1191183488.00000000,0.00000000,-0.00012206,207.00000000,-0.03884640,0.24254081,9.83354473,0.01586983,0.03423712,-0.02488005,0.24952026,0.05482260,-0.48317045,-0.00011628,-0.00016462,0.60007435,-0.00046850,-0.01168649,11.16876221,0.99999988,0.00052318,-0.00002097,-0.00000001,0.00743222,-0.00848985,0.04441028,-0.07880405,-0.08889799,0.00418747,22217612.00000000,-0.00000000,3146443013270536192.00000000,-4283.58056641,-3212832624867278848.00000000,2268976521773318144.00000000,-15326346240.00000000,0.00000000,75.03144836,-40536884887158784.00000000,17729961695711069818766217105637376.00000000,0.00000000
1.20364487,-1.11749935,6.07086897,-0.02234873,-0.09684449,-0.33735937,0.24813843,0.05584717,-0.47973633,0.00000000,-0.00000000,0.31000000,0.01600000,0.00700000,-0.00800000,0.99880010,0.00571619,0.00166346,-0.04861004,0.00019674,0.00027557,-0.00018670,0.00415510,0.00171306,-0.00117452,-0.00793002,0.00022298,-0.04076010,0.11894142,0.03005707,-0.00336837,0.02939511,0.01836373,0.01619059,-2.77106500,-2.76207042,13.04735374,0.26418185,0.00000000,0.00000000,1.50000000,0.10329500,0.00000000,1.00000000,79.46187592,16.41818428,-1191183488.00000000,0.00000000,-0.00012206,207.00000000,-0.09903313,0.26801831,9.86236858,0.01580110,0.03006374,-0.02609679,0.24971730,0.05516133,-0.48244485,-0.00011805,-0.00016534,0.60007471,-0.00026095,-0.01187164,11.16891479,0.99999988,0.00053146,-0.00001168,-0.00000001,0.00743071,-0.00849051,0.04466569,-0.07880773,-0.08889916,0.00422188,22217612.00000000,-0.00000000,3146443013270536192.00000000,-4283.58056641,-3212832624867278848.00000000,2268976521773318144.00000000,-15326346240.00000000,0.00000000,75.03144836,-40536884887158784.00000000,17729961695711069818766217105637376.00000000,0.00000000
1.94066799,-0.97870922,4.10148573,-0.04044056,-0.14792730,-0.25860670,0.24813843,0.05584717,-0.47973633,0.00000000,-0.00000000,0.31000000,0.01600000,0.00700000,-0.00800000,0.99880034,0.00572856,0.00167557,-0.04860386,0.00020069,0.00027746,-0.00018779,0.00394652,0.00188289,-0.00109354,-0.00793002,0.00022298,-0.04076010,0.11894142,0.03005707,-0.00336837,0.02939511,0.01836373,0.01619059,-2.78044844,-2.76968384,13.04755878,0.27088565,0.00000000,0.00000000,1.50000000,0.10429600,0.00000000,1.00000000,79.46247101,17.08856392,-1191183488.00000000,0.00000000,-0.00012206,207.00000000,-0.14349334,0.29015008,9.87578201,0.01555507,0.02566416,-0.02849858,0.24988353,0.05546701,-0.48177814,-0.00012042,-0.00016647,0.60007513,0.00010820,-0.01218040,11.16909790,0.99999988,0.00054527,0.00000484,0.00000000,0.00742869,-0.00849154,0.04502676,-0.07881292,-0.08890080,0.00427054,22217612.00000000,-0.00000000,3146443013270536192.00000000,-4283.58056641,-3212832624867278848.00000000,2268976521773318144.00000000,-15326346240.00000000,0.00000000,75.03144836,-40536884887158784.00000000,17729961695711069818766217105637376.00000000,0.00000000
