accel_x,accel_y,accel_z,gyro_yaw,gyro_pitch,gyro_roll,mag_x,mag_y,mag_z,gps_pos_north,gps_pos_west,gps_pos_up,gps_vel_north,gps_vel_west,gps_vel_up,state_q_vec_w,state_q_vec_x,state_q_vec_y,state_q_vec_z,state_pos_north,state_pos_west,state_pos_up,state_vel_north,state_vel_west,state_vel_up,gyro_bias_yaw,gyro_bias_pitch,gyro_bias_roll,accel_bias_x,accel_bias_y,accel_bias_z,mag_bias_x,mag_bias_y,mag_bias_z,gimbal_yaw_raw,gimbal_pitch_raw,thrust_N,roll_rad_sec_squared,target_pos_north,target_pos_west,target_pos_up,elapsed_time,GND_flag,flight_armed,thrust_perc,diffy_perc,rtk_status,gps_hor_prec,gps_ver_prec,gps_sat_count,filtered_accel_x,filtered_accel_y,filtered_accel_z,filtered_gyro_x,filtered_gyro_y,filtered_gyro_z,filtered_mag_x,filtered_mag_y,filtered_mag_z,velocity_target_x,velocity_target_y,velocity_target_z,accel_target_x,accel_target_y,accel_target_z,attitude_target[0],attitude_target[1],attitude_target[2],attitude_target[3],velocity_integrator_x,velocity_integrator_y,velocity_integrator_z,attitude_integrator_x,attitude_integrator_y,attitude_integrator_z,posCovNN,posCovNE,posCovND,posCovEE,posCovED,posCovDD,velCovNN,velCovNE,velCovND,velCovEE,velCovED,velCovDD
0.05264451,0.28475893,9.81341457,-0.00638535,0.00000000,-0.04044056,0.23934937,0.08303833,-0.48416138,0.00000000,0.00000000,0.31000000,0.00000000,0.00000000,0.00000000,0.98987317,0.01369535,0.00076837,-0.14129037,0.00014942,0.00365003,0.00005278,-0.19048393,0.35116974,0.00820354,-0.00845297,0.00072571,-0.03937629,0.07446961,0.02680044,-0.00335529,0.02208341,0.01271905,0.01222188,0.00000000,0.00000000,0.00000000,0.00000000,0.00000000,0.00000000,0.00000000,0.00121400,0.00000000,1.00000000,0.00000000,0.00000000,314572096.00000000,0.00000000,0.00000000,35.00000000,0.99884599,0.99912876,1.01073551,0.99877411,0.99878186,0.99873263,0.99907345,0.99888307,0.99819213,-0.00008965,-0.00219002,-0.00002111,0.34279996,-0.63616037,9.80150032,0.99932289,0.03239614,0.01743328,0.00056515,0.00009030,-0.00011282,-0.00001496,-0.07998067,-0.08997442,0.00017183,21177228.00000000,-0.00000000,-3146434217177513984.00000000,4267.56494141,-3211728715192991744.00000000,0.00000000,-0.00000000,0.00000000,75.03138733,-2594362831801417728.00000000,17729961695711069818766217105637376.00000000,0.00000000
0.03110812,0.28475893,9.81102180,-0.00532113,-0.00638535,-0.02128450,0.23934937,0.08303833,-0.48416138,0.00000000,-0.00000000,0.31000000,0.00200000,-0.00100000,0.01000000,0.98998600,0.01464497,0.00143959,-0.14039665,-0.00002769,0.00566096,0.00009088,-0.19752628,0.36691201,0.00663140,-0.00845297,0.00072571,-0.03937629,0.07446961,0.02680044,-0.00335529,0.02208341,0.01271905,0.01222188,-0.11646867,-0.08114678,13.51610374,0.52359879,0.00000000,0.00000000,2.00000000,0.00289600,0.00000000,1.00000000,83.87109375,30.00000000,314572096.00000000,0.00000000,0.00000000,35.00000000,0.99448866,0.99585885,1.05102563,0.99417442,0.99420232,0.99399918,0.99559587,0.99469084,0.99140686,0.00001661,-0.00339657,0.79996365,0.35577643,-0.66680688,11.54761696,0.99946606,0.02883262,0.01536729,0.00044332,0.00019924,-0.00025150,0.00078567,-0.07996091,-0.08994443,0.00040828,21177228.00000000,-0.00000000,-3146434217177513984.00000000,4267.56494141,-3211728715192991744.00000000,0.00000000,-0.00000000,0.00000000,75.03138733,-2594362831801417728.00000000,17729961695711069818766217105637376.00000000,0.00000000
0.04785864,0.28236598,9.80623627,-0.00851380,-0.00532113,-0.03511943,0.23739624,0.08486938,-0.48355103,0.00000000,-0.00000000,0.31000000,0.00200000,-0.00100000,0.01000000,0.99004430,0.01516022,0.00181577,-0.13992561,-0.00020786,0.00599795,0.00008968,-0.19647886,0.36749679,-0.00130139,-0.00845297,0.00072571,-0.03937629,0.07446961,0.02680044,-0.00335529,0.02208341,0.01271905,0.01222188,-0.22946844,-0.15917909,13.51655293,0.52359879,0.00000000,0.00000000,2.00000000,0.00381300,0.00000000,1.00000000,83.87721252,30.00000000,314572096.00000000,0.00000000,0.00000000,35.00000000,0.98628497,0.98972166,1.12659800,0.98554397,0.98559767,0.98514670,0.98906970,0.98682863,0.97867858,0.00012471,-0.00359877,0.79996413,0.35414746,-0.66830045,11.56551075,0.99946690,0.02885249,0.01527329,0.00044091,0.00026105,-0.00032840,0.00122652,-0.07995057,-0.08992852,0.00053676,21177228.00000000,-0.00000000,-3146434217177513984.00000000,4267.56494141,-3211728715192991744.00000000,0.00000000,-0.00000000,0.00000000,75.03138733,-2594362831801417728.00000000,17729961695711069818766217105637376.00000000,0.00000000
0.04785864,0.28715184,9.80862904,-0.00851380,0.00000000,-0.04044056,0.23739624,0.08486938,-0.48355103,0.00000000,-0.00000000,0.31000000,0.00200000,-0.00100000,0.01000000,0.99007481,0.01543151,0.00201381,-0.13967757,-0.00030367,0.00617781,0.00008700,-0.19592714,0.36780432,-0.00547792,-0.00845297,0.00072571,-0.03937629,0.07446961,0.02680044,-0.00335529,0.02208341,0.01271905,0.01222188,-0.33906102,-0.23423626,13.51678848,0.52359879,0.00000000,0.00000000,2.00000000,0.00430200,0.00000000,1.00000000,83.88041687,30.00000000,314572096.00000000,0.00000000,0.00000000,35.00000000,0.97434163,0.98078257,1.23664498,0.97296792,0.97306275,0.97224671,0.97955960,0.97538334,0.96014303,0.00018220,-0.00370668,0.79996520,0.35329095,-0.66908938,11.57493782,0.99946737,0.02886302,0.01522395,0.00043964,0.00029414,-0.00036953,0.00146284,-0.07994518,-0.08992016,0.00060515,21177228.00000000,-0.00000000,-3146434217177513984.00000000,4267.56494141,-3211728715192991744.00000000,0.00000000,-0.00000000,0.00000000,75.03138733,-2594362831801417728.00000000,17729961695711069818766217105637376.00000000,0.00000000
0.04546571,0.28475893,9.80862904,-0.00638535,0.00000000,-0.04044056,0.23739624,0.08486938,-0.48355103,0.00000000,-0.00000000,0.31000000,0.00200000,-0.00100000,0.01000000,0.99010438,0.01569650,0.00220724,-0.13943522,-0.00039862,0.00635671,0.00008236,-0.19538783,0.36810416,-0.00955743,-0.00845297,0.00072571,-0.03937629,0.07446961,0.02680044,-0.00335529,0.02208341,0.01271905,0.01222188,-0.44531366,-0.30645928,13.51701927,0.52359879,0.00000000,0.00000000,2.00000000,0.00478800,0.00000000,1.00000000,83.88356781,30.00000000,314572096.00000000,0.00000000,0.00000000,35.00000000,0.95838559,0.96883285,1.38381040,0.95614487,0.95631057,0.95496464,0.96683621,0.96008146,0.93535572,0.00023917,-0.00381402,0.79996705,0.35245565,-0.66986316,11.58415318,0.99946779,0.02887340,0.01517588,0.00043841,0.00032706,-0.00041049,0.00169890,-0.07993994,-0.08991197,0.00067301,21177228.00000000,-0.00000000,-3146434217177513984.00000000,4267.56494141,-3211728715192991744.00000000,0.00000000,-0.00000000,0.00000000,75.03138733,-2594362831801417728.00000000,17729961695711069818766217105637376.00000000,0.00000000
0.04307278,0.27997306,9.80384254,-0.00638535,0.00000000,-0.03618366,0.23739624,0.08486938,-0.48355103,0.00000000,-0.00000000,0.31000000,0.00200000,-0.00100000,0.01000000,0.99013448,0.01596800,0.00240541,-0.13918686,-0.00049779,0.00654423,0.00007537,-0.19483471,0.36841056,-0.01373697,-0.00845297,0.00072571,-0.03937629,0.07446961,0.02680044,-0.00335529,0.02208341,0.01271905,0.01222188,-0.54829681,-0.37598288,13.51725483,0.52359879,0.00000000,0.00000000,2.00000000,0.00529700,0.00000000,1.00000000,83.88677216,30.00000000,314572096.00000000,0.00000000,0.00000000,35.00000000,0.93852413,0.95395714,1.56695771,0.93520916,0.93547189,0.93344104,0.95099741,0.94104069,0.90450728,0.00029868,-0.00392654,0.79996985,0.35160166,-0.67066026,11.59360313,0.99946821,0.02888419,0.01512678,0.00043716,0.00036158,-0.00045346,0.00194740,-0.07993457,-0.08990353,0.00074395,21177228.00000000,-0.00000000,-3146434217177513984.00000000,4267.56494141,-3211728715192991744.00000000,0.00000000,-0.00000000,0.00000000,75.03138733,-2594362831801417728.00000000,17729961695711069818766217105637376.00000000,0.00000000
0.03589398,0.27997306,9.80144978,-0.00532113,0.00212845,-0.03405520,0.23428345,0.08877563,-0.48428345,0.00000000,-0.00000000,0.31000000,0.00200000,-0.00100000,0.01000000,0.99020821,0.01663941,0.00289541,-0.13857254,-0.00074775,0.00702119,0.00004427,-0.19346455,0.36916453,-0.02407220,-0.00845297,0.00072571,-0.03937629,0.07446961,0.02680044,-0.00335529,0.02208341,0.01271905,0.01222188,-0.64808583,-0.44294596,13.51784897,0.52359879,0.00000000,0.00000000,2.00000000,0.00658900,0.00000000,1.00000000,83.89486694,30.00000000,314572096.00000000,0.00000000,0.00000000,35.00000000,0.91548866,0.93670017,1.77920091,0.91094732,0.91133004,0.90849221,0.93263203,0.91898113,0.86875421,0.00044865,-0.00421271,0.79998231,0.34949288,-0.67264187,11.61700630,0.99946928,0.02891117,0.01500579,0.00043407,0.00044914,-0.00056284,0.00258621,-0.07992176,-0.08988288,0.00092323,21177228.00000000,-0.00000000,-3146434217177513984.00000000,4267.56494141,-3211728715192991744.00000000,0.00000000,-0.00000000,0.00000000,75.03138733,-2594362831801417728.00000000,17729961695711069818766217105637376.00000000,0.00000000
0.03828691,0.28715184,9.80862904,-0.00851380,0.00000000,-0.03724788,0.23428345,0.08877563,-0.48428345,0.00000000,-0.00000000,0.31000000,0.00200000,-0.00100000,0.01000000,0.99024707,0.01699618,0.00315575,-0.13824604,-0.00088401,0.00728247,0.00002337,-0.19273512,0.36956295,-0.02956364,-0.00845297,0.00072571,-0.03937629,0.07446961,0.02680044,-0.00335529,0.02208341,0.01271905,0.01222188,-0.74474794,-0.50746715,13.51817131,0.52359879,0.00000000,0.00000000,2.00000000,0.00729600,0.00000000,1.00000000,83.89926147,30.00000000,314572096.00000000,0.00000000,0.00000000,35.00000000,0.89021498,0.91777581,2.01183367,0.88435197,0.88488138,0.88113648,0.91248542,0.89481699,0.82956165,0.00053041,-0.00436948,0.79999065,0.34837523,-0.67370129,11.62945843,0.99946982,0.02892568,0.01494180,0.00043243,0.00049727,-0.00062294,0.00293811,-0.07991498,-0.08987182,0.00102111,21177228.00000000,-0.00000000,-3146434217177513984.00000000,4267.56494141,-3211728715192991744.00000000,0.00000000,-0.00000000,0.00000000,75.03138733,-2594362831801417728.00000000,17729961695711069818766217105637376.00000000,0.00000000
0.04067985,0.26800841,9.82298660,-0.00532113,-0.00319268,-0.03511943,0.23428345,0.08877563,-0.48428345,0.00000000,-0.00000000,0.31000000,0.00200000,-0.00100000,0.01000000,0.99029976,0.01748528,0.00351261,-0.13779831,-0.00107594,0.00765294,-0.00001376,-0.19173263,0.37010497,-0.03709143,-0.00845297,0.00072571,-0.03937629,0.07446961,0.02680044,-0.00335529,0.02208341,0.01271905,0.01222188,-0.83835441,-0.56966883,13.51862335,0.52359879,0.00000000,0.00000000,2.00000000,0.00829700,0.00000000,1.00000000,83.90541840,30.00000000,314572096.00000000,0.00000000,0.00000000,35.00000000,0.86331522,0.89763206,2.25928736,0.85606295,0.85675901,0.85202652,0.89104080,0.86913276,0.78787243,0.00064556,-0.00459177,0.80000556,0.34684619,-0.67516237,11.64655495,0.99947053,0.02894585,0.01485440,0.00043020,0.00056548,-0.00070826,0.00344087,-0.07990583,-0.08985660,0.00115924,21177228.00000000,-0.00000000,-3146434217177513984.00000000,4267.56494141,-3211728715192991744.00000000,0.00000000,-0.00000000,0.00000000,75.03138733,-2594362831801417728.00000000,17729961695711069818766217105637376.00000000,0.00000000
0.02871519,0.27758011,9.82059383,-0.00425690,-0.00212845,-0.02766985,0.23593140,0.08621216,-0.48446655,0.00000000,-0.00000000,0.31000000,0.00200000,-0.00100000,0.01000000,0.99036455,0.01809429,0.00395690,-0.13724062,-0.00132185,0.00813161,-0.00007375,-0.19048026,0.37077266,-0.04646373,-0.00845297,0.00072571,-0.03937629,0.07446961,0.02680044,-0.00335529,0.02208341,0.01271905,0.01222188,-0.92897999,-0.62966299,13.51920033,0.52359879,0.00000000,0.00000000,2.00000000,0.00958800,0.00000000,1.00000000,83.91327667,30.00000000,314572096.00000000,0.00000000,0.00000000,35.00000000,0.83491123,0.87634212,2.52036810,0.82622850,0.82709396,0.82132572,0.86840844,0.84205127,0.74389297,0.00079311,-0.00487897,0.80002946,0.34494567,-0.67699164,11.66788197,0.99947143,0.02897120,0.01474601,0.00042744,0.00065358,-0.00081870,0.00409656,-0.07989475,-0.08983771,0.00133667,21177228.00000000,-0.00000000,-3146434217177513984.00000000,4267.56494141,-3211728715192991744.00000000,0.00000000,-0.00000000,0.00000000,75.03138733,-2594362831801417728.00000000,17729961695711069818766217105637376.00000000,0.00000000
0.03589398,0.27518719,9.82059383,-0.00957803,-0.00212845,-0.03724788,0.23593140,0.08621216,-0.48446655,0.00000000,-0.00000000,0.31000000,0.00200000,-0.00100000,0.01000000,0.99039847,0.01841614,0.00419166,-0.13694580,-0.00145643,0.00839474,-0.00011020,-0.18981618,0.37112159,-0.05141624,-0.00845297,0.00072571,-0.03937629,0.07446961,0.02680044,-0.00335529,0.02208341,0.01271905,0.01222188,-1.01669657,-0.68754065,13.51951504,0.52359879,0.00000000,0.00000000,2.00000000,0.01029700,0.00000000,1.00000000,83.91756439,30.00000000,314572096.00000000,0.00000000,0.00000000,35.00000000,0.80493957,0.85387784,2.79546881,0.79480302,0.79583806,0.78900474,0.84455884,0.81352669,0.69755715,0.00087386,-0.00503684,0.80004406,0.34394422,-0.67796469,11.67917156,0.99947184,0.02898479,0.01468900,0.00042598,0.00070216,-0.00087958,0.00445877,-0.07988887,-0.08982754,0.00143391,21177228.00000000,-0.00000000,-3146434217177513984.00000000,4267.56494141,-3211728715192991744.00000000,0.00000000,-0.00000000,0.00000000,75.03138733,-2594362831801417728.00000000,17729961695711069818766217105637376.00000000,0.00000000
0.01914346,0.28475893,9.80862904,-0.00957803,0.00000000,-0.03937633,0.23593140,0.08621216,-0.48446655,0.00000000,-0.00000000,0.31000000,0.00200000,-0.00100000,0.01000000,0.99044394,0.01885107,0.00450882,-0.13654730,-0.00164515,0.00876595,-0.00016825,-0.18891494,0.37158611,-0.05810765,-0.00845297,0.00072571,-0.03937629,0.07446961,0.02680044,-0.00335529,0.02208341,0.01271905,0.01222188,-1.10157180,-0.74339980,13.51995659,0.52359879,0.00000000,0.00000000,2.00000000,0.01129600,0.00000000,1.00000000,83.92358398,30.00000000,314572096.00000000,0.00000000,0.00000000,35.00000000,0.77354074,0.83037239,3.08318114,0.76193249,0.76314908,0.75521100,0.81961453,0.78370136,0.64910012,0.00098709,-0.00525957,0.80006737,0.34259433,-0.67928779,11.69445896,0.99947244,0.02900338,0.01461223,0.00042403,0.00077066,-0.00096558,0.00497316,-0.07988099,-0.08981363,0.00157052,21177228.00000000,-0.00000000,-3146434217177513984.00000000,4267.56494141,-3211728715192991744.00000000,0.00000000,-0.00000000,0.00000000,75.03138733,-2594362831801417728.00000000,17729961695711069818766217105637376.00000000,0.00000000
0.02153639,0.26800841,9.82059383,-0.01064225,0.00000000,-0.03724788,0.23703003,0.08615112,-0.48410034,0.00000000,-0.00000000,0.31000000,0.00200000,-0.00100000,0.01000000,0.99049950,0.01938839,0.00490058,-0.13605478,-0.00188760,0.00924640,-0.00025394,-0.18779546,0.37214887,-0.06637318,-0.00845297,0.00072571,-0.03937629,0.07446961,0.02680044,-0.00335529,0.02208341,0.01271905,0.01222188,-1.18367028,-0.79733449,13.52052593,0.52359879,0.00000000,0.00000000,2.00000000,0.01258700,0.00000000,1.00000000,83.93133545,30.00000000,314572096.00000000,0.00000000,0.00000000,35.00000000,0.74113053,0.80614698,3.37951016,0.72806674,0.72948307,0.72039878,0.79392374,0.75298762,0.59919518,0.00113256,-0.00554784,0.80010158,0.34092972,-0.68093115,11.71338940,0.99947315,0.02902654,0.01451775,0.00042162,0.00085930,-0.00107707,0.00564433,-0.07987145,-0.08979627,0.00174644,21177228.00000000,-0.00000000,-3146434217177513984.00000000,4267.56494141,-3211728715192991744.00000000,0.00000000,-0.00000000,0.00000000,75.03138733,-2594362831801417728.00000000,17729961695711069818766217105637376.00000000,0.00000000
0.04546571,0.27997306,9.83016491,-0.00957803,0.00106423,-0.04576168,0.23703003,0.08615112,-0.48410034,0.00000000,-0.00000000,0.31000000,0.00200000,-0.00100000,0.01000000,0.99052829,0.01966971,0.00510564,-0.13579683,-0.00202033,0.00951045,-0.00030407,-0.18720618,0.37243769,-0.07070006,-0.00845297,0.00072571,-0.03937629,0.07446961,0.02680044,-0.00335529,0.02208341,0.01271905,0.01222188,-1.26305521,-0.84942311,13.52083683,0.52359879,0.00000000,0.00000000,2.00000000,0.01329600,0.00000000,1.00000000,83.93556976,30.00000000,314572096.00000000,0.00000000,0.00000000,35.00000000,0.70823956,0.78156811,3.67983794,0.69373649,0.69537318,0.68510300,0.76789337,0.72186399,0.54862571,0.00121220,-0.00570627,0.80012161,0.34006119,-0.68179762,11.72332287,0.99947351,0.02903884,0.01446850,0.00042037,0.00090814,-0.00113851,0.00601478,-0.07986639,-0.08978693,0.00184286,21177228.00000000,-0.00000000,-3146434217177513984.00000000,4267.56494141,-3211728715192991744.00000000,0.00000000,-0.00000000,0.00000000,75.03138733,-2594362831801417728.00000000,17729961695711069818766217105637376.00000000,0.00000000
0.03110812,0.29672357,9.83734417,-0.00638535,0.00319268,-0.03937633,0.23703003,0.08615112,-0.48410034,0.00000000,-0.00000000,0.31000000,0.00200000,-0.00100000,0.01000000,0.99056667,0.02004702,0.00538062,-0.13545077,-0.00220674,0.00988327,-0.00038057,-0.18641058,0.37281528,-0.07650217,-0.00845297,0.00072571,-0.03937629,0.07446961,0.02680044,-0.00335529,0.02208341,0.01271905,0.01222188,-1.33979321,-0.89975715,13.52127552,0.52359879,0.00000000,0.00000000,2.00000000,0.01429600,0.00000000,1.00000000,83.94155121,30.00000000,314572096.00000000,0.00000000,0.00000000,35.00000000,0.67523330,0.75691837,3.98120213,0.65928757,0.66116780,0.64966100,0.74178439,0.69063866,0.49789536,0.00132404,-0.00592996,0.80015224,0.33889937,-0.68296677,11.73668098,0.99947393,0.02905551,0.01440266,0.00041870,0.00097707,-0.00122534,0.00654078,-0.07985959,-0.08977410,0.00197853,21177228.00000000,-0.00000000,-3146434217177513984.00000000,4267.56494141,-3211728715192991744.00000000,0.00000000,-0.00000000,0.00000000,75.03138733,-2594362831801417728.00000000,17729961695711069818766217105637376.00000000,0.00000000
0.02632225,0.29672357,9.81580734,-0.00638535,-0.00319268,-0.03405520,0.23623657,0.08633423,-0.48446655,0.00000000,-0.00000000,0.31000000,0.00200000,-0.00100000,0.01000000,0.99061322,0.02050932,0.00571747,-0.13502660,-0.00244631,0.01036553,-0.00048859,-0.18542776,0.37326321,-0.08360986,-0.00845297,0.00072571,-0.03937629,0.07446961,0.02680044,-0.00335529,0.02208341,0.01271905,0.01222188,-1.41395402,-0.94842333,13.52184296,0.52359879,0.00000000,0.00000000,2.00000000,0.01558800,0.00000000,1.00000000,83.94927979,30.00000000,314572096.00000000,0.00000000,0.00000000,35.00000000,0.64218491,0.73232168,4.28272057,0.62482595,0.62696505,0.61418700,0.71567023,0.65940237,0.44714874,0.00146779,-0.00621932,0.80019540,0.33747816,-0.68440646,11.75309753,0.99947453,0.02907608,0.01432223,0.00041665,0.00106622,-0.00133786,0.00722590,-0.07985137,-0.08975807,0.00215326,21177228.00000000,-0.00000000,-3146434217177513984.00000000,4267.56494141,-3211728715192991744.00000000,0.00000000,-0.00000000,0.00000000,75.03138733,-2594362831801417728.00000000,17729961695711069818766217105637376.00000000,0.00000000
0.03589398,0.27279428,9.81341457,-0.00957803,-0.00106423,-0.04363323,0.23623657,0.08633423,-0.48446655,0.00000000,-0.00000000,0.31000000,0.00200000,-0.00100000,0.01000000,0.99063724,0.02074920,0.00589223,-0.13480645,-0.00257741,0.01063033,-0.00055049,-0.18491365,0.37348801,-0.08729702,-0.00845297,0.00072571,-0.03937629,0.07446961,0.02680044,-0.00335529,0.02208341,0.01271905,0.01222188,-1.48560596,-0.99548537,13.52215195,0.52359879,0.00000000,0.00000000,2.00000000,0.01629700,0.00000000,1.00000000,83.95349121,30.00000000,314572096.00000000,0.00000000,0.00000000,35.00000000,0.60910553,0.70776922,4.58420658,0.59036779,0.59276968,0.57870793,0.68956071,0.62817210,0.39640903,0.00154645,-0.00637820,0.80022019,0.33674344,-0.68515891,11.76164150,0.99947476,0.02908689,0.01428068,0.00041560,0.00111528,-0.00139978,0.00760345,-0.07984701,-0.08974943,0.00224899,21177228.00000000,-0.00000000,-3146434217177513984.00000000,4267.56494141,-3211728715192991744.00000000,0.00000000,-0.00000000,0.00000000,75.03138733,-2594362831801417728.00000000,17729961695711069818766217105637376.00000000,0.00000000
0.04785864,0.27997306,9.81580734,-0.00851380,0.00000000,-0.04044056,0.23623657,0.08633423,-0.48446655,0.00000000,-0.00000000,0.31000000,0.00200000,-0.00100000,0.01000000,0.99066889,0.02106812,0.00612450,-0.13451369,-0.00276164,0.01100410,-0.00064268,-0.18422341,0.37377450,-0.09219784,-0.00845297,0.00072571,-0.03937629,0.07446961,0.02680044,-0.00335529,0.02208341,0.01271905,0.01222188,-1.55481660,-1.04101479,13.52258968,0.52359879,0.00000000,0.00000000,2.00000000,0.01729700,0.00000000,1.00000000,83.95944977,30.00000000,314572096.00000000,0.00000000,0.00000000,35.00000000,0.57615757,0.68329918,4.88464451,0.55602592,0.55869371,0.54333329,0.66354215,0.59705347,0.34584606,0.00165698,-0.00660246,0.80025715,0.33576924,-0.68616575,11.77303982,0.99947518,0.02910142,0.01422558,0.00041420,0.00118451,-0.00148727,0.00813892,-0.07984115,-0.08973753,0.00238372,21177228.00000000,-0.00000000,-3146434217177513984.00000000,4267.56494141,-3211728715192991744.00000000,0.00000000,-0.00000000,0.00000000,75.03138733,-2594362831801417728.00000000,17729961695711069818766217105637376.00000000,0.00000000
0.04546571,0.27758011,9.80623627,-0.01064225,0.00000000,-0.03618366,0.23825073,0.08554077,-0.48440552,0.00000000,-0.00000000,0.31000000,0.00200000,-0.00100000,0.01000000,0.99070698,0.02145535,0.00640646,-0.13415810,-0.00299856,0.01148744,-0.00076949,-0.18337530,0.37410399,-0.09814662,-0.00845297,0.00072571,-0.03937629,0.07446961,0.02680044,-0.00335529,0.02208341,0.01271905,0.01222188,-1.62165356,-1.08507967,13.52315617,0.52359879,0.00000000,0.00000000,2.00000000,0.01858900,0.00000000,1.00000000,83.96717072,30.00000000,314572096.00000000,0.00000000,0.00000000,35.00000000,0.54361171,0.65908873,5.18187952,0.52204704,0.52498311,0.50832599,0.63780296,0.56626761,0.29582205,0.00179914,-0.00689247,0.80030775,0.33458799,-0.68739420,11.78693581,0.99947560,0.02911913,0.01415882,0.00041251,0.00127402,-0.00160059,0.00883541,-0.07983404,-0.08972263,0.00255734,21177228.00000000,-0.00000000,-3146434217177513984.00000000,4267.56494141,-3211728715192991744.00000000,0.00000000,-0.00000000,0.00000000,75.03138733,-2594362831801417728.00000000,17729961695711069818766217105637376.00000000,0.00000000
0.05264451,0.28236598,9.81341457,-0.00851380,0.00000000,-0.04256901,0.23825073,0.08554077,-0.48440552,0.00000000,-0.00000000,0.31000000,0.00200000,-0.00100000,0.01000000,0.99072641,0.02165419,0.00655121,-0.13397546,-0.00312808,0.01175242,-0.00084114,-0.18293454,0.37426367,-0.10120048,-0.00845297,0.00072571,-0.03937629,0.07446961,0.02680044,-0.00335529,0.02208341,0.01271905,0.01222188,-1.68618238,-1.12773144,13.52346706,0.52359879,0.00000000,0.00000000,2.00000000,0.01929700,0.00000000,1.00000000,83.97140503,30.00000000,314572096.00000000,0.00000000,0.00000000,35.00000000,0.51172137,0.63533127,5.47358179,0.48869306,0.49189723,0.47396475,0.61254650,0.53604996,0.24672419,0.00187685,-0.00705145,0.80033648,0.33398369,-0.68803006,11.79409981,0.99947584,0.02912835,0.01412467,0.00041164,0.00132319,-0.00166283,0.00921838,-0.07983027,-0.08971459,0.00265235,21177228.00000000,-0.00000000,-3146434217177513984.00000000,4267.56494141,-3211728715192991744.00000000,0.00000000,-0.00000000,0.00000000,75.03138733,-2594362831801417728.00000000,17729961695711069818766217105637376.00000000,0.00000000
0.05025157,0.27040133,9.80862904,-0.00851380,0.00000000,-0.03937633,0.23825073,0.08554077,-0.48440552,0.00000000,-0.00000000,0.31000000,0.00200000,-0.00100000,0.01000000,0.99075192,0.02191663,0.00674220,-0.13373433,-0.00331042,0.01212688,-0.00094637,-0.18234445,0.37445936,-0.10522979,-0.00845297,0.00072571,-0.03937629,0.07446961,0.02680044,-0.00335529,0.02208341,0.01271905,0.01222188,-1.74846876,-1.16903090,13.52390480,0.52359879,0.00000000,0.00000000,2.00000000,0.02029700,0.00000000,1.00000000,83.97737122,30.00000000,314572096.00000000,0.00000000,0.00000000,35.00000000,0.48064318,0.61211520,5.75833988,0.45612207,0.45959517,0.44040254,0.58789515,0.50654376,0.19878685,0.00198625,-0.00727613,0.80037850,0.33318791,-0.68887472,11.80360031,0.99947608,0.02914062,0.01407967,0.00041051,0.00139265,-0.00175088,0.00976174,-0.07982519,-0.08970347,0.00278631,21177228.00000000,-0.00000000,-3146434217177513984.00000000,4267.56494141,-3211728715192991744.00000000,0.00000000,-0.00000000,0.00000000,75.03138733,-2594362831801417728.00000000,17729961695711069818766217105637376.00000000,0.00000000
0.03350105,0.28715184,9.80862904,-0.00957803,-0.00106423,-0.03618366,0.23611450,0.08590698,-0.48440552,0.00000000,-0.00000000,0.31000000,0.00200000,-0.00100000,0.01000000,0.99078244,0.02223252,0.00697202,-0.13344403,-0.00354508,0.01261096,-0.00108859,-0.18162215,0.37467316,-0.11007815,-0.00845297,0.00072571,-0.03937629,0.07446961,0.02680044,-0.00335529,0.02208341,0.01271905,0.01222188,-1.80857646,-1.20903647,13.52447701,0.52359879,0.00000000,0.00000000,2.00000000,0.02158900,0.00000000,1.00000000,83.98516846,30.00000000,314572096.00000000,0.00000000,0.00000000,35.00000000,0.45040280,0.58945805,6.03578186,0.42437375,0.42812032,0.40768534,0.56387806,0.47778758,0.15207167,0.00212705,-0.00756658,0.80043548,0.33223101,-0.68989635,11.81509781,0.99947643,0.02915542,0.01402558,0.00040914,0.00148245,-0.00186487,0.01046757,-0.07981900,-0.08968948,0.00295901,21177228.00000000,-0.00000000,-3146434217177513984.00000000,4267.56494141,-3211728715192991744.00000000,0.00000000,-0.00000000,0.00000000,75.03138733,-2594362831801417728.00000000,17729961695711069818766217105637376.00000000,0.00000000
0.02632225,0.27997306,9.82537937,-0.00851380,0.00000000,-0.03937633,0.23611450,0.08590698,-0.48440552,0.00000000,-0.00000000,0.31000000,0.00200000,-0.00100000,0.01000000,0.99079794,0.02239325,0.00708892,-0.13329627,-0.00367340,0.01287630,-0.00116827,-0.18124828,0.37477052,-0.11254426,-0.00845297,0.00072571,-0.03937629,0.07446961,0.02680044,-0.00335529,0.02208341,0.01271905,0.01222188,-1.86656678,-1.24779236,13.52479172,0.52359879,0.00000000,0.00000000,2.00000000,0.02229700,0.00000000,1.00000000,83.98945618,30.00000000,314572096.00000000,0.00000000,0.00000000,35.00000000,0.42096424,0.56739008,6.30587339,0.39345568,0.39748070,0.37582988,0.54049700,0.44978961,0.10659009,0.00220404,-0.00772578,0.80046731,0.33174592,-0.69042075,11.82098103,0.99947655,0.02916306,0.01399813,0.00040844,0.00153175,-0.00192745,0.01085542,-0.07981572,-0.08968192,0.00305355,21177228.00000000,-0.00000000,-3146434217177513984.00000000,4267.56494141,-3211728715192991744.00000000,0.00000000,-0.00000000,0.00000000,75.03138733,-2594362831801417728.00000000,17729961695711069818766217105637376.00000000,0.00000000
0.03828691,0.26082960,9.82777214,-0.00744958,-0.00212845,-0.03724788,0.23611450,0.08590698,-0.48440552,0.00000000,-0.00000000,0.31000000,0.00200000,-0.00100000,0.01000000,0.99081796,0.02260331,0.00724165,-0.13310309,-0.00385415,0.01325118,-0.00128404,-0.18074982,0.37487999,-0.11576585,-0.00845297,0.00072571,-0.03937629,0.07446961,0.02680044,-0.00335529,0.02208341,0.01271905,0.01222188,-1.92250526,-1.28535020,13.52523613,0.52359879,0.00000000,0.00000000,2.00000000,0.02329700,0.00000000,1.00000000,83.99550629,30.00000000,314572096.00000000,0.00000000,0.00000000,35.00000000,0.39236423,0.54594207,6.56818104,0.36343145,0.36772951,0.34489501,0.51779264,0.42260149,0.06242517,0.00231249,-0.00795071,0.80051368,0.33111355,-0.69111115,11.82872009,0.99947679,0.02917311,0.01396231,0.00040754,0.00160140,-0.00201596,0.01140519,-0.07981126,-0.08967143,0.00318688,21177228.00000000,-0.00000000,-3146434217177513984.00000000,4267.56494141,-3211728715192991744.00000000,0.00000000,-0.00000000,0.00000000,75.03138733,-2594362831801417728.00000000,17729961695711069818766217105637376.00000000,0.00000000
0.05503744,0.26800841,9.84452248,-0.00638535,0.00000000,-0.03618366,0.23696899,0.08572388,-0.48550415,0.00000000,-0.00000000,0.31000000,0.00200000,-0.00100000,0.01000000,0.99084175,0.02285351,0.00742349,-0.13287291,-0.00408689,0.01373566,-0.00143856,-0.18014215,0.37498510,-0.11960141,-0.00845297,0.00072571,-0.03937629,0.07446961,0.02680044,-0.00335529,0.02208341,0.01271905,0.01222188,-1.97646022,-1.32175648,13.52581406,0.52359879,0.00000000,0.00000000,2.00000000,0.02458900,0.00000000,1.00000000,84.00337982,30.00000000,314572096.00000000,0.00000000,0.00000000,35.00000000,0.36473706,0.52516067,6.82177258,0.33442026,0.33897325,0.31500182,0.49584886,0.39632422,0.01973970,0.00245214,-0.00824140,0.80057544,0.33036113,-0.69193816,11.83800793,0.99947703,0.02918509,0.01391965,0.00040646,0.00169143,-0.00213049,0.01211851,-0.07980581,-0.08965817,0.00335885,21177228.00000000,-0.00000000,-3146434217177513984.00000000,4267.56494141,-3211728715192991744.00000000,0.00000000,-0.00000000,0.00000000,75.03138733,-2594362831801417728.00000000,17729961695711069818766217105637376.00000000,0.00000000
0.06460917,0.27518719,9.82537937,-0.00851380,0.00425690,-0.04150478,0.23696899,0.08572388,-0.48550415,0.00000000,-0.00000000,0.31000000,0.00200000,-0.00100000,0.01000000,0.99085373,0.02297946,0.00751499,-0.13275701,-0.00421421,0.01400118,-0.00152461,-0.17982881,0.37502450,-0.12153100,-0.00845297,0.00072571,-0.03937629,0.07446961,0.02680044,-0.00335529,0.02208341,0.01271905,0.01222188,-2.02849674,-1.35704839,13.52613163,0.52359879,0.00000000,0.00000000,2.00000000,0.02529700,0.00000000,1.00000000,84.00770569,30.00000000,314572096.00000000,0.00000000,0.00000000,35.00000000,0.33822474,0.50513470,7.06570482,0.30653048,0.31132615,0.28626147,0.47474742,0.37105614,-0.02130880,0.00252853,-0.00840071,0.80060989,0.32998401,-0.69235867,11.84272099,0.99947715,0.02919120,0.01389823,0.00040592,0.00174083,-0.00219335,0.01251023,-0.07980290,-0.08965099,0.00345301,21177228.00000000,-0.00000000,-3146434217177513984.00000000,4267.56494141,-3211728715192991744.00000000,0.00000000,-0.00000000,0.00000000,75.03138733,-2594362831801417728.00000000,17729961695711069818766217105637376.00000000,0.00000000
0.07178796,0.28475893,9.75598431,-0.00851380,-0.00106423,-0.03724788,0.23696899,0.08572388,-0.48550415,0.00000000,-0.00000000,0.31000000,0.00200000,-0.00100000,0.01000000,0.99086910,0.02314225,0.00763319,-0.13260715,-0.00439363,0.01437623,-0.00164863,-0.17941232,0.37505472,-0.12402336,-0.00845297,0.00072571,-0.03937629,0.07446961,0.02680044,-0.00335529,0.02208341,0.01271905,0.01222188,-2.07867837,-1.39127290,13.52658176,0.52359879,0.00000000,0.00000000,2.00000000,0.02629700,0.00000000,1.00000000,84.01383972,30.00000000,314572096.00000000,0.00000000,0.00000000,35.00000000,0.31291312,0.48592675,7.29940367,0.27980828,0.28484556,0.25871986,0.45452797,0.34684452,-0.06064425,0.00263618,-0.00862574,0.80065948,0.32949790,-0.69290704,11.84886742,0.99947727,0.02919915,0.01387055,0.00040522,0.00181061,-0.00228221,0.01306504,-0.07979894,-0.08964099,0.00358585,21177228.00000000,-0.00000000,-3146434217177513984.00000000,4267.56494141,-3211728715192991744.00000000,0.00000000,-0.00000000,0.00000000,75.03138733,-2594362831801417728.00000000,17729961695711069818766217105637376.00000000,0.00000000
0.09811021,0.26082960,9.72726917,-0.01064225,-0.00319268,-0.04044056,0.23641968,0.08688354,-0.48538208,0.00000000,-0.00000000,0.31000000,0.00200000,-0.00100000,0.01000000,0.99088717,0.02333361,0.00777206,-0.13243090,-0.00462442,0.01486006,-0.00181240,-0.17890653,0.37506127,-0.12695128,-0.00845297,0.00072571,-0.03937629,0.07446961,0.02680044,-0.00335529,0.02208341,0.01271905,0.01222188,-2.12706470,-1.42447019,13.52716541,0.52359879,0.00000000,0.00000000,2.00000000,0.02758700,0.00000000,1.00000000,84.02178955,30.00000000,314572096.00000000,0.00000000,0.00000000,35.00000000,0.28887057,0.46751925,7.52270031,0.25424498,0.25951853,0.23237258,0.43518886,0.32368749,-0.09827159,0.00277465,-0.00891604,0.80072498,0.32892680,-0.69355619,11.85617065,0.99947745,0.02920849,0.01383798,0.00040440,0.00190066,-0.00239699,0.01378307,-0.07979406,-0.08962832,0.00375699,21177228.00000000,-0.00000000,-3146434217177513984.00000000,4267.56494141,-3211728715192991744.00000000,0.00000000,-0.00000000,0.00000000,75.03138733,-2594362831801417728.00000000,17729961695711069818766217105637376.00000000,0.00000000
0.13400421,0.23690028,9.74641228,-0.00957803,-0.00425690,-0.03724788,0.23641968,0.08688354,-0.48538208,0.00000000,-0.00000000,0.31000000,0.00200000,-0.00100000,0.01000000,0.99089599,0.02342900,0.00784124,-0.13234298,-0.00475107,0.01512597,-0.00190344,-0.17864536,0.37504861,-0.12840994,-0.00845297,0.00072571,-0.03937629,0.07446961,0.02680044,-0.00335529,0.02208341,0.01271905,0.01222188,-2.17371035,-1.45666575,13.52748871,0.52359879,0.00000000,0.00000000,2.00000000,0.02829600,0.00000000,1.00000000,84.02619934,30.00000000,314572096.00000000,0.00000000,0.00000000,35.00000000,0.26620969,0.44983363,7.73565102,0.22982204,0.23532054,0.20720313,0.41671887,0.30157280,-0.13421464,0.00285064,-0.00907558,0.80076140,0.32864302,-0.69388366,11.85985565,0.99947757,0.02921320,0.01382175,0.00040399,0.00195021,-0.00246015,0.01417833,-0.07979144,-0.08962142,0.00385099,21177228.00000000,-0.00000000,-3146434217177513984.00000000,4267.56494141,-3211728715192991744.00000000,0.00000000,-0.00000000,0.00000000,75.03138733,-2594362831801417728.00000000,17729961695711069818766217105637376.00000000,0.00000000
0.08375262,0.21297096,9.71530437,-0.00957803,-0.00532113,-0.03405520,0.23641968,0.08688354,-0.48538208,0.00000000,-0.00000000,0.31000000,0.00200000,-0.00100000,0.01000000,0.99090737,0.02355039,0.00792921,-0.13223106,-0.00492937,0.01550098,-0.00203370,-0.17829897,0.37500805,-0.13026537,-0.00845297,0.00072571,-0.03937629,0.07446961,0.02680044,-0.00335529,0.02208341,0.01271905,0.01222188,-2.21867204,-1.48789048,13.52794933,0.52359879,0.00000000,0.00000000,2.00000000,0.02929600,0.00000000,1.00000000,84.03247070,30.00000000,314572096.00000000,0.00000000,0.00000000,35.00000000,0.24497315,0.43279955,7.93815708,0.20654824,0.21225530,0.18322733,0.39912403,0.28050840,-0.16846144,0.00295762,-0.00930059,0.80081350,0.32828194,-0.69430482,11.86461067,0.99947768,0.02921921,0.01380103,0.00040347,0.00202009,-0.00254930,0.01473698,-0.07978786,-0.08961180,0.00398346,21177228.00000000,-0.00000000,-3146434217177513984.00000000,4267.56494141,-3211728715192991744.00000000,0.00000000,-0.00000000,0.00000000,75.03138733,-2594362831801417728.00000000,17729961695711069818766217105637376.00000000,0.00000000
0.05264451,0.16032645,9.73684120,-0.01383493,-0.00425690,-0.03618366,0.23703003,0.08566284,-0.48562622,0.00000000,-0.00000000,0.31000000,0.00200000,-0.00100000,0.01000000,0.99092054,0.02369110,0.00803107,-0.13210122,-0.00515919,0.01598538,-0.00220478,-0.17787781,0.37492666,-0.13241565,-0.00845297,0.00072571,-0.03937629,0.07446961,0.02680044,-0.00335529,0.02208341,0.01271905,0.01222188,-2.26200366,-1.51817119,13.52855110,0.52359879,0.00000000,0.00000000,2.00000000,0.03058800,0.00000000,1.00000000,84.04067230,30.00000000,314572096.00000000,0.00000000,0.00000000,35.00000000,0.22504056,0.41632539,8.12989330,0.18444929,0.19034742,0.16048542,0.38242650,0.26052055,-0.20096669,0.00309552,-0.00959123,0.80088198,0.32786238,-0.69479674,11.87021542,0.99947780,0.02922610,0.01377688,0.00040285,0.00211039,-0.00266457,0.01546047,-0.07978339,-0.08959953,0.00415444,21177228.00000000,-0.00000000,-3146434217177513984.00000000,4267.56494141,-3211728715192991744.00000000,0.00000000,-0.00000000,0.00000000,75.03138733,-2594362831801417728.00000000,17729961695711069818766217105637376.00000000,0.00000000
0.06460917,0.07178796,9.86845207,-0.01702760,-0.00532113,-0.03618366,0.23703003,0.08566284,-0.48562622,0.00000000,-0.00000000,0.31000000,0.00200000,-0.00100000,0.01000000,0.99092698,0.02375983,0.00808078,-0.13203773,-0.00528498,0.01625079,-0.00229928,-0.17766112,0.37486735,-0.13346627,-0.00845297,0.00072571,-0.03937629,0.07446961,0.02680044,-0.00335529,0.02208341,0.01271905,0.01222188,-2.30374718,-1.54752302,13.52888584,0.52359879,0.00000000,0.00000000,2.00000000,0.03129600,0.00000000,1.00000000,84.04522705,30.00000000,314572096.00000000,0.00000000,0.00000000,35.00000000,0.20631103,0.40018165,8.31083870,0.16353488,0.16961628,0.13900045,0.36664358,0.24162856,-0.23169516,0.00317099,-0.00975047,0.80091971,0.32765770,-0.69503987,11.87300682,0.99947786,0.02922945,0.01376504,0.00040255,0.00215992,-0.00272780,0.01585740,-0.07978098,-0.08959285,0.00424809,21177228.00000000,-0.00000000,-3146434217177513984.00000000,4267.56494141,-3211728715192991744.00000000,0.00000000,-0.00000000,0.00000000,75.03138733,-2594362831801417728.00000000,17729961695711069818766217105637376.00000000,0.00000000
-0.01196466,0.08375262,10.00484943,-0.01702760,-0.00638535,-0.03405520,0.23703003,0.08566284,-0.48562622,0.00000000,-0.00000000,0.31000000,0.00200000,-0.00100000,0.01000000,0.99093503,0.02384585,0.00814290,-0.13195814,-0.00546253,0.01662593,-0.00243420,-0.17737350,0.37476268,-0.13478136,-0.00845297,0.00072571,-0.03937629,0.07446961,0.02680044,-0.00335529,0.02208341,0.01271905,0.01222188,-2.34394407,-1.57596672,13.52936363,0.52359879,0.00000000,0.00000000,2.00000000,0.03229700,0.00000000,1.00000000,84.05174255,30.00000000,314572096.00000000,0.00000000,0.00000000,35.00000000,0.18866953,0.38413090,8.48158646,0.14379004,0.15005356,0.11876813,0.35177082,0.22382592,-0.26065540,0.00327752,-0.00997556,0.80097371,0.32740173,-0.69534600,11.87658119,0.99947798,0.02923352,0.01375015,0.00040218,0.00222994,-0.00281724,0.01641942,-0.07977766,-0.08958349,0.00438042,21177228.00000000,-0.00000000,-3146434217177513984.00000000,4267.56494141,-3211728715192991744.00000000,0.00000000,-0.00000000,0.00000000,75.03138733,-2594362831801417728.00000000,17729961695711069818766217105637376.00000000,0.00000000
-0.04307278,0.16989818,10.00963497,-0.02234873,-0.00532113,-0.03405520,0.23733521,0.08566284,-0.48721313,0.00000000,-0.00000000,0.31000000,0.00200000,-0.00100000,0.01000000,0.99094415,0.02394328,0.00821316,-0.13186777,-0.00569124,0.01710991,-0.00261026,-0.17702532,0.37460083,-0.13627113,-0.00845297,0.00072571,-0.03937629,0.07446961,0.02680044,-0.00335529,0.02208341,0.01271905,0.01222188,-2.38263226,-1.60352242,13.52998257,0.52359879,0.00000000,0.00000000,2.00000000,0.03358900,0.00000000,1.00000000,84.06017303,30.00000000,314572096.00000000,0.00000000,0.00000000,35.00000000,0.17184840,0.36822295,8.64288902,0.12517685,0.13163134,0.09976101,0.33778602,0.20708317,-0.28789568,0.00341475,-0.01026595,0.80104411,0.32711244,-0.69569290,11.88074017,0.99947804,0.02923785,0.01373319,0.00040174,0.00232031,-0.00293274,0.01714602,-0.07977349,-0.08957151,0.00455111,21177228.00000000,-0.00000000,-3146434217177513984.00000000,4267.56494141,-3211728715192991744.00000000,0.00000000,-0.00000000,0.00000000,75.03138733,-2594362831801417728.00000000,17729961695711069818766217105637376.00000000,0.00000000
-0.05264451,0.19382751,9.94981194,-0.02341295,-0.00638535,-0.03618366,0.23733521,0.08566284,-0.48721313,0.00000000,-0.00000000,0.31000000,0.00200000,-0.00100000,0.01000000,0.99094844,0.02398966,0.00824656,-0.13182458,-0.00581645,0.01737505,-0.00270724,-0.17684707,0.37449858,-0.13698012,-0.00845297,0.00072571,-0.03937629,0.07446961,0.02680044,-0.00335529,0.02208341,0.01271905,0.01222188,-2.41983676,-1.63020623,13.53032398,0.52359879,0.00000000,0.00000000,2.00000000,0.03429700,0.00000000,1.00000000,84.06481934,30.00000000,314572096.00000000,0.00000000,0.00000000,35.00000000,0.15563433,0.35269603,8.79514122,0.10764831,0.11432154,0.08193907,0.32466492,0.19136712,-0.31347114,0.00348987,-0.01042503,0.80108291,0.32697636,-0.69585854,11.88278389,0.99947810,0.02923979,0.01372512,0.00040153,0.00236987,-0.00299607,0.01754451,-0.07977123,-0.08956499,0.00464461,21177228.00000000,-0.00000000,-3146434217177513984.00000000,4267.56494141,-3211728715192991744.00000000,0.00000000,-0.00000000,0.00000000,75.03138733,-2594362831801417728.00000000,17729961695711069818766217105637376.00000000,0.00000000
-0.05743037,0.27279428,9.92348957,-0.02447718,-0.00532113,-0.03724788,0.23733521,0.08566284,-0.48721313,0.00000000,-0.00000000,0.31000000,0.00200000,-0.00100000,0.01000000,0.99095374,0.02404593,0.00828703,-0.13177192,-0.00599324,0.01774976,-0.00284522,-0.17661209,0.37433550,-0.13783962,-0.00845297,0.00072571,-0.03937629,0.07446961,0.02680044,-0.00335529,0.02208341,0.01271905,0.01222188,-2.45558572,-1.65604091,13.53080559,0.52359879,0.00000000,0.00000000,2.00000000,0.03529800,0.00000000,1.00000000,84.07138062,30.00000000,314572096.00000000,0.00000000,0.00000000,35.00000000,0.13996027,0.33780017,8.93842506,0.09117477,0.09810414,0.06526928,0.31239077,0.17665692,-0.33741611,0.00359594,-0.01064986,0.80113810,0.32681438,-0.69605929,11.88535976,0.99947816,0.02924188,0.01371535,0.00040127,0.00243992,-0.00308565,0.01810846,-0.07976809,-0.08955581,0.00477675,21177228.00000000,-0.00000000,-3146434217177513984.00000000,4267.56494141,-3211728715192991744.00000000,0.00000000,-0.00000000,0.00000000,75.03138733,-2594362831801417728.00000000,17729961695711069818766217105637376.00000000,0.00000000
-0.19382751,0.29433066,9.88041687,-0.02447718,-0.00425690,-0.03405520,0.23751831,0.08590698,-0.48806763,0.00000000,-0.00000000,0.31000000,0.00200000,-0.00100000,0.01000000,0.99095958,0.02410721,0.00833105,-0.13171414,-0.00622071,0.01823236,-0.00302424,-0.17633048,0.37410298,-0.13877468,-0.00845297,0.00072571,-0.03937629,0.07446961,0.02680044,-0.00335529,0.02208341,0.01271905,0.01222188,-2.48990703,-1.68104863,13.53142071,0.52359879,0.00000000,0.00000000,2.00000000,0.03658800,0.00000000,1.00000000,84.07976532,30.00000000,314572096.00000000,0.00000000,0.00000000,35.00000000,0.12464629,0.32384592,9.07270050,0.07574361,0.08296737,0.04973654,0.30095220,0.16294162,-0.35975081,0.00373242,-0.01093941,0.80120975,0.32664344,-0.69627744,11.88830185,0.99947828,0.02924381,0.01370479,0.00040099,0.00253021,-0.00320112,0.01883601,-0.07976412,-0.08954405,0.00494698,21177228.00000000,-0.00000000,-3146434217177513984.00000000,4267.56494141,-3211728715192991744.00000000,0.00000000,-0.00000000,0.00000000,75.03138733,-2594362831801417728.00000000,17729961695711069818766217105637376.00000000,0.00000000
-0.21536389,0.27279428,9.78230667,-0.02873408,-0.00638535,-0.03192675,0.23751831,0.08590698,-0.48806763,0.00000000,-0.00000000,0.31000000,0.00200000,-0.00100000,0.01000000,0.99096227,0.02413509,0.00835108,-0.13168755,-0.00634545,0.01849712,-0.00312279,-0.17618760,0.37396464,-0.13919963,-0.00845297,0.00072571,-0.03937629,0.07446961,0.02680044,-0.00335529,0.02208341,0.01271905,0.01222188,-2.52281880,-1.70524585,13.53175545,0.52359879,0.00000000,0.00000000,2.00000000,0.03729600,0.00000000,1.00000000,84.08432007,30.00000000,314572096.00000000,0.00000000,0.00000000,35.00000000,0.10938588,0.31104577,9.19777298,0.06133536,0.06889259,0.03533039,0.29033396,0.15020595,-0.38050446,0.00380727,-0.01109827,0.80124915,0.32657054,-0.69637775,11.88972282,0.99947834,0.02924452,0.01370009,0.00040086,0.00257978,-0.00326452,0.01923551,-0.07976196,-0.08953761,0.00504038,21177228.00000000,-0.00000000,-3146434217177513984.00000000,4267.56494141,-3211728715192991744.00000000,0.00000000,-0.00000000,0.00000000,75.03138733,-2594362831801417728.00000000,17729961695711069818766217105637376.00000000,0.00000000
-0.04067985,0.25125787,9.69616127,-0.03299098,-0.00319268,-0.03937633,0.23751831,0.08590698,-0.48806763,0.00000000,-0.00000000,0.31000000,0.00200000,-0.00100000,0.01000000,0.99096543,0.02416690,0.00837394,-0.13165671,-0.00652145,0.01887088,-0.00326247,-0.17600191,0.37375551,-0.13968459,-0.00845297,0.00072571,-0.03937629,0.07446961,0.02680044,-0.00335529,0.02208341,0.01271905,0.01222188,-2.55434394,-1.72865260,13.53222752,0.52359879,0.00000000,0.00000000,2.00000000,0.03829600,0.00000000,1.00000000,84.09075165,30.00000000,314572096.00000000,0.00000000,0.00000000,35.00000000,0.09427349,0.29939669,9.31337452,0.04790933,0.05584850,0.02201326,0.28051054,0.13842024,-0.39972606,0.00391287,-0.01132253,0.80130500,0.32649636,-0.69649452,11.89147758,0.99947834,0.02924511,0.01369496,0.00040072,0.00264979,-0.00335408,0.01980010,-0.07975894,-0.08952855,0.00517228,21177228.00000000,-0.00000000,-3146434217177513984.00000000,4267.56494141,-3211728715192991744.00000000,0.00000000,-0.00000000,0.00000000,75.03138733,-2594362831801417728.00000000,17729961695711069818766217105637376.00000000,0.00000000
0.02392932,0.21775682,9.76794910,-0.03511943,-0.00106423,-0.04469746,0.23898315,0.08493042,-0.48922729,0.00000000,-0.00000000,0.31000000,0.00200000,-0.00100000,0.01000000,0.99096870,0.02419894,0.00839703,-0.13162482,-0.00674873,0.01935377,-0.00344372,-0.17578162,0.37346902,-0.14017473,-0.00845297,0.00072571,-0.03937629,0.07446961,0.02680044,-0.00335529,0.02208341,0.01271905,0.01222188,-2.58450127,-1.75129271,13.53283501,0.52359879,0.00000000,0.00000000,2.00000000,0.03958900,0.00000000,1.00000000,84.09902954,30.00000000,314572096.00000000,0.00000000,0.00000000,35.00000000,0.07978297,0.28875473,9.41957569,0.03541424,0.04380338,0.00971671,0.27145076,0.12754288,-0.41748047,0.00404924,-0.01161226,0.80137748,0.32643586,-0.69661617,11.89344597,0.99947846,0.02924538,0.01369016,0.00040058,0.00274031,-0.00346990,0.02053056,-0.07975508,-0.08951687,0.00534279,21177228.00000000,-0.00000000,-3146434217177513984.00000000,4267.56494141,-3211728715192991744.00000000,0.00000000,-0.00000000,0.00000000,75.03138733,-2594362831801417728.00000000,17729961695711069818766217105637376.00000000,0.00000000
0.07896676,0.25365081,10.00006294,-0.03724788,0.00212845,-0.03831211,0.23898315,0.08493042,-0.48922729,0.00000000,-0.00000000,0.31000000,0.00200000,-0.00100000,0.01000000,0.99097008,0.02421186,0.00840643,-0.13161139,-0.00687311,0.01961807,-0.00354311,-0.17567126,0.37330431,-0.14037424,-0.00845297,0.00072571,-0.03937629,0.07446961,0.02680044,-0.00335529,0.02208341,0.01271905,0.01222188,-2.61329818,-1.77319539,13.53316784,0.52359879,0.00000000,0.00000000,2.00000000,0.04029700,0.00000000,1.00000000,84.10356903,30.00000000,314572096.00000000,0.00000000,0.00000000,35.00000000,0.06623411,0.27896196,9.51712608,0.02380337,0.03272834,-0.00161372,0.26312497,0.11753154,-0.43383339,0.00412387,-0.01177084,0.80141729,0.32642111,-0.69666857,11.89437199,0.99947846,0.02924530,0.01368847,0.00040053,0.00278989,-0.00353333,0.02093063,-0.07975297,-0.08951049,0.00543614,21177228.00000000,-0.00000000,-3146434217177513984.00000000,4267.56494141,-3211728715192991744.00000000,0.00000000,-0.00000000,0.00000000,75.03138733,-2594362831801417728.00000000,17729961695711069818766217105637376.00000000,0.00000000
0.18664871,0.33740342,10.08381557,-0.03937633,0.00000000,-0.05001858,0.23898315,0.08493042,-0.48922729,0.00000000,-0.00000000,0.31000000,0.00200000,-0.00100000,0.01000000,0.99097151,0.02422406,0.00841552,-0.13159767,-0.00704864,0.01999114,-0.00368367,-0.17552851,0.37306151,-0.14056635,-0.00845297,0.00072571,-0.03937629,0.07446961,0.02680044,-0.00335529,0.02208341,0.01271905,0.01222188,-2.64074969,-1.79439247,13.53363514,0.52359879,0.00000000,0.00000000,2.00000000,0.04129700,0.00000000,1.00000000,84.10993195,30.00000000,314572096.00000000,0.00000000,0.00000000,35.00000000,0.05394541,0.27004972,9.60706615,0.01303604,0.02259251,-0.01201949,0.25550598,0.10835189,-0.44883901,0.00422918,-0.01199468,0.80147344,0.32642376,-0.69672406,11.89548397,0.99947852,0.02924490,0.01368731,0.00040049,0.00285991,-0.00362293,0.02149586,-0.07975000,-0.08950148,0.00556798,21177228.00000000,-0.00000000,-3146434217177513984.00000000,4267.56494141,-3211728715192991744.00000000,0.00000000,-0.00000000,0.00000000,75.03138733,-2594362831801417728.00000000,17729961695711069818766217105637376.00000000,0.00000000
0.27997306,0.36851156,9.69376850,-0.04044056,-0.00851380,-0.05321126,0.23977661,0.08480835,-0.49008179,0.00000000,-0.00000000,0.31000000,0.00200000,-0.00100000,0.01000000,0.99097276,0.02423261,0.00842235,-0.13158613,-0.00727520,0.02047271,-0.00386547,-0.17535856,0.37273595,-0.14070819,-0.00845297,0.00072571,-0.03937629,0.07446961,0.02680044,-0.00335529,0.02208341,0.01271905,0.01222188,-2.66686797,-1.81490815,13.53423309,0.52359879,0.00000000,0.00000000,2.00000000,0.04258900,0.00000000,1.00000000,84.11808014,30.00000000,314572096.00000000,0.00000000,0.00000000,35.00000000,0.04345278,0.26219845,9.68962288,0.00307684,0.01335026,-0.02156206,0.24856889,0.09997446,-0.46254539,0.00436512,-0.01228363,0.80154622,0.32645300,-0.69677389,11.89668655,0.99947852,0.02924404,0.01368715,0.00040048,0.00295038,-0.00373868,0.02222629,-0.07974618,-0.08948985,0.00573830,21177228.00000000,-0.00000000,-3146434217177513984.00000000,4267.56494141,-3211728715192991744.00000000,0.00000000,-0.00000000,0.00000000,75.03138733,-2594362831801417728.00000000,17729961695711069818766217105637376.00000000,0.00000000
0.38765502,0.43072778,9.21278858,-0.04256901,-0.01702760,-0.05321126,0.23977661,0.08480835,-0.49008179,0.00000000,-0.00000000,0.31000000,0.00200000,-0.00100000,0.01000000,0.99097317,0.02423366,0.00842363,-0.13158293,-0.00739912,0.02073611,-0.00396497,-0.17527181,0.37255216,-0.14073350,-0.00845297,0.00072571,-0.03937629,0.07446961,0.02680044,-0.00335529,0.02208341,0.01271905,0.01222188,-2.69165826,-1.83475363,13.53456116,0.52359879,0.00000000,0.00000000,2.00000000,0.04329600,0.00000000,1.00000000,84.12255096,30.00000000,314572096.00000000,0.00000000,0.00000000,35.00000000,0.03527601,0.25560793,9.76382351,-0.00610770,0.00493609,-0.03029738,0.24228801,0.09236686,-0.47500592,0.00443947,-0.01244166,0.80158597,0.32648021,-0.69679087,11.89722919,0.99947852,0.02924342,0.01368767,0.00040048,0.00299989,-0.00380203,0.02262603,-0.07974409,-0.08948348,0.00583150,21177228.00000000,-0.00000000,-3146434217177513984.00000000,4267.56494141,-3211728715192991744.00000000,0.00000000,-0.00000000,0.00000000,75.03138733,-2594362831801417728.00000000,17729961695711069818766217105637376.00000000,0.00000000
0.60780478,0.51448041,9.21757412,-0.04363323,-0.02234873,-0.06278928,0.23977661,0.08480835,-0.49008179,0.00000000,-0.00000000,0.31000000,0.00200000,-0.00100000,0.01000000,0.99097335,0.02423041,0.00842231,-0.13158241,-0.00757427,0.02110839,-0.00410567,-0.17515494,0.37228554,-0.14070447,-0.00845297,0.00072571,-0.03937629,0.07446961,0.02680044,-0.00335529,0.02208341,0.01271905,0.01222188,-2.71513486,-1.85392404,13.53502846,0.52359879,0.00000000,0.00000000,2.00000000,0.04429600,0.00000000,1.00000000,84.12891388,30.00000000,314572096.00000000,0.00000000,0.00000000,35.00000000,0.02991775,0.25056905,9.82883072,-0.01455401,-0.00272219,-0.03827722,0.23663147,0.08549125,-0.48628175,0.00454456,-0.01266504,0.80164224,0.32652903,-0.69680268,11.89785480,0.99947852,0.02924238,0.01368900,0.00040051,0.00306991,-0.00389162,0.02319144,-0.07974114,-0.08947448,0.00596333,21177228.00000000,-0.00000000,-3146434217177513984.00000000,4267.56494141,-3211728715192991744.00000000,0.00000000,-0.00000000,0.00000000,75.03138733,-2594362831801417728.00000000,17729961695711069818766217105637376.00000000,0.00000000
0.30390239,0.57191080,9.61240864,-0.04150478,-0.03086253,-0.06278928,0.23953247,0.08389282,-0.49203491,0.00000000,-0.00000000,0.31000000,0.00200000,-0.00100000,0.01000000,0.99097300,0.02422062,0.00841691,-0.13158645,-0.00780056,0.02158930,-0.00428746,-0.17500742,0.37193432,-0.14059429,-0.00845297,0.00072571,-0.03937629,0.07446961,0.02680044,-0.00335529,0.02208341,0.01271905,0.01222188,-2.73731518,-1.87240112,13.53564548,0.52359879,0.00000000,0.00000000,2.00000000,0.04558900,0.00000000,1.00000000,84.13732147,30.00000000,314572096.00000000,0.00000000,0.00000000,35.00000000,0.02737418,0.24739067,9.88516998,-0.02229624,-0.00970002,-0.04556403,0.23156343,0.07930584,-0.49644041,0.00468034,-0.01295358,0.80171502,0.32659841,-0.69680566,11.89850330,0.99947852,0.02924092,0.01369116,0.00040055,0.00316045,-0.00400746,0.02392248,-0.07973731,-0.08946282,0.00613378,21177228.00000000,-0.00000000,-3146434217177513984.00000000,4267.56494141,-3211728715192991744.00000000,0.00000000,-0.00000000,0.00000000,75.03138733,-2594362831801417728.00000000,17729961695711069818766217105637376.00000000,0.00000000
0.09571729,0.59344715,9.83016491,-0.04044056,-0.03831211,-0.06598196,0.23953247,0.08389282,-0.49203491,0.00000000,-0.00000000,0.31000000,0.00200000,-0.00100000,0.01000000,0.99097270,0.02421246,0.00841210,-0.13159105,-0.00792441,0.02185249,-0.00438693,-0.17492703,0.37173972,-0.14049943,-0.00845297,0.00072571,-0.03937629,0.07446961,0.02680044,-0.00335529,0.02208341,0.01271905,0.01222188,-2.75822067,-1.89015126,13.53599167,0.52359879,0.00000000,0.00000000,2.00000000,0.04629700,0.00000000,1.00000000,84.14203644,30.00000000,314572096.00000000,0.00000000,0.00000000,35.00000000,0.02668574,0.24619703,9.93405247,-0.02936228,-0.01607754,-0.05220843,0.22704914,0.07376956,-0.50554895,0.00475464,-0.01311150,0.80175477,0.32663700,-0.69680303,11.89878273,0.99947858,0.02924012,0.01369246,0.00040058,0.00321002,-0.00407088,0.02432275,-0.07973520,-0.08945644,0.00622712,21177228.00000000,-0.00000000,-3146434217177513984.00000000,4267.56494141,-3211728715192991744.00000000,0.00000000,-0.00000000,0.00000000,75.03138733,-2594362831801417728.00000000,17729961695711069818766217105637376.00000000,0.00000000
0.42594191,0.58626837,9.76794910,-0.03831211,-0.04256901,-0.07875266,0.23953247,0.08389282,-0.49203491,0.00000000,-0.00000000,0.31000000,0.00200000,-0.00100000,0.01000000,0.99097186,0.02419736,0.00840290,-0.13160057,-0.00809922,0.02222396,-0.00452726,-0.17481232,0.37146354,-0.14032330,-0.00845297,0.00072571,-0.03937629,0.07446961,0.02680044,-0.00335529,0.02208341,0.01271905,0.01222188,-2.77788091,-1.90712726,13.53649330,0.52359879,0.00000000,0.00000000,2.00000000,0.04729700,0.00000000,1.00000000,84.14887238,30.00000000,314572096.00000000,0.00000000,0.00000000,35.00000000,0.02740300,0.24690692,9.97621536,-0.03577695,-0.02192341,-0.05826518,0.22305726,0.06884643,-0.51366556,0.00485953,-0.01333437,0.80181092,0.32668933,-0.69679666,11.89908409,0.99947858,0.02923911,0.01369431,0.00040062,0.00328002,-0.00416045,0.02488803,-0.07973222,-0.08944741,0.00635897,21177228.00000000,-0.00000000,-3146434217177513984.00000000,4267.56494141,-3211728715192991744.00000000,0.00000000,-0.00000000,0.00000000,75.03138733,-2594362831801417728.00000000,17729961695711069818766217105637376.00000000,0.00000000
0.58148253,0.63173407,9.74401951,-0.03299098,-0.04363323,-0.08300956,0.24038696,0.08505249,-0.49179077,0.00000000,-0.00000000,0.31000000,0.00200000,-0.00100000,0.01000000,0.99097043,0.02417367,0.00838818,-0.13161646,-0.00832471,0.02270306,-0.00470806,-0.17465977,0.37110749,-0.14004937,-0.00845297,0.00072571,-0.03937629,0.07446961,0.02680044,-0.00335529,0.02208341,0.01271905,0.01222188,-2.79633236,-1.92328024,13.53716183,0.52359879,0.00000000,0.00000000,2.00000000,0.04858800,0.00000000,1.00000000,84.15797424,30.00000000,314572096.00000000,0.00000000,0.00000000,35.00000000,0.03015582,0.24941136,10.01224518,-0.04155748,-0.02728208,-0.06380033,0.21955948,0.06450466,-0.52084291,0.00499482,-0.01362184,0.80188322,0.32674864,-0.69678885,11.89936924,0.99947858,0.02923809,0.01369647,0.00040067,0.00337039,-0.00427607,0.02561765,-0.07972834,-0.08943573,0.00652920,21177228.00000000,-0.00000000,-3146434217177513984.00000000,4267.56494141,-3211728715192991744.00000000,0.00000000,-0.00000000,0.00000000,75.03138733,-2594362831801417728.00000000,17729961695711069818766217105637376.00000000,0.00000000
0.24886495,0.65087754,9.90913200,-0.02766985,-0.05108281,-0.07768843,0.24038696,0.08505249,-0.49179077,0.00000000,-0.00000000,0.31000000,0.00200000,-0.00100000,0.01000000,0.99096948,0.02415861,0.00837865,-0.13162698,-0.00844848,0.02296603,-0.00480723,-0.17457192,0.37091315,-0.13987680,-0.00845297,0.00072571,-0.03937629,0.07446961,0.02680044,-0.00335529,0.02208341,0.01271905,0.01222188,-2.81362653,-1.93856204,13.53753662,0.52359879,0.00000000,0.00000000,2.00000000,0.04929700,0.00000000,1.00000000,84.16308594,30.00000000,314572096.00000000,0.00000000,0.00000000,35.00000000,0.03478442,0.25367716,10.04339981,-0.04671196,-0.03219016,-0.06885435,0.21652775,0.06071248,-0.52713519,0.00506909,-0.01377962,0.80192292,0.32677379,-0.69678652,11.89947796,0.99947858,0.02923772,0.01369739,0.00040069,0.00342000,-0.00433956,0.02601829,-0.07972619,-0.08942930,0.00662269,21177228.00000000,-0.00000000,-3146434217177513984.00000000,4267.56494141,-3211728715192991744.00000000,0.00000000,-0.00000000,0.00000000,75.03138733,-2594362831801417728.00000000,17729961695711069818766217105637376.00000000,0.00000000
0.03828691,0.78966761,10.19149780,-0.02234873,-0.06066084,-0.08620223,0.24038696,0.08505249,-0.49179077,0.00000000,-0.00000000,0.31000000,0.00200000,-0.00100000,0.01000000,0.99096793,0.02413482,0.00836335,-0.13164411,-0.00862274,0.02333631,-0.00494670,-0.17444143,0.37064293,-0.13960561,-0.00845297,0.00072571,-0.03937629,0.07446961,0.02680044,-0.00335529,0.02208341,0.01271905,0.01222188,-2.82982349,-1.95292222,13.53807640,0.52359879,0.00000000,0.00000000,2.00000000,0.05029600,0.00000000,1.00000000,84.17044067,30.00000000,314572096.00000000,0.00000000,0.00000000,35.00000000,0.04003061,0.25978512,10.07133389,-0.05124821,-0.03669860,-0.07345682,0.21393162,0.05743505,-0.53259921,0.00517365,-0.01400178,0.80197871,0.32679701,-0.69678944,11.89956856,0.99947852,0.02923762,0.01369826,0.00040071,0.00348989,-0.00442901,0.02658268,-0.07972315,-0.08942024,0.00675445,21177228.00000000,-0.00000000,-3146434217177513984.00000000,4267.56494141,-3211728715192991744.00000000,0.00000000,-0.00000000,0.00000000,75.03138733,-2594362831801417728.00000000,17729961695711069818766217105637376.00000000,0.00000000
-0.25125787,0.83274037,10.10295963,-0.01064225,-0.07449576,-0.09045914,0.23916626,0.08407593,-0.49142456,0.00000000,-0.00000000,0.31000000,0.00200000,-0.00100000,0.01000000,0.99096566,0.02410117,0.00834129,-0.13166903,-0.00884789,0.02381473,-0.00512657,-0.17426407,0.37030125,-0.13922158,-0.00845297,0.00072571,-0.03937629,0.07446961,0.02680044,-0.00335529,0.02208341,0.01271905,0.01222188,-2.84499669,-1.96630013,13.53877926,0.52359879,0.00000000,0.00000000,2.00000000,0.05158800,0.00000000,1.00000000,84.18001556,30.00000000,314572096.00000000,0.00000000,0.00000000,35.00000000,0.04482095,0.26790550,10.09685421,-0.05516957,-0.04087378,-0.07765795,0.21173859,0.05463576,-0.53729117,0.00530874,-0.01428884,0.80205059,0.32681128,-0.69680679,11.89961147,0.99947852,0.02923824,0.01369881,0.00040074,0.00358025,-0.00454467,0.02731235,-0.07971917,-0.08940848,0.00692487,21177228.00000000,-0.00000000,-3146434217177513984.00000000,4267.56494141,-3211728715192991744.00000000,0.00000000,-0.00000000,0.00000000,75.03138733,-2594362831801417728.00000000,17729961695711069818766217105637376.00000000,0.00000000
-0.47619349,0.69155741,9.46643925,-0.00212845,-0.07130308,-0.08833069,0.23916626,0.08407593,-0.49142456,0.00000000,-0.00000000,0.31000000,0.00200000,-0.00100000,0.01000000,0.99096423,0.02408135,0.00832801,-0.13168406,-0.00897137,0.02407715,-0.00522512,-0.17416254,0.37011945,-0.13899496,-0.00845297,0.00072571,-0.03937629,0.07446961,0.02680044,-0.00335529,0.02208341,0.01271905,0.01222188,-2.85925031,-1.97862566,13.53916454,0.52359879,0.00000000,0.00000000,2.00000000,0.05229700,0.00000000,1.00000000,84.18526459,30.00000000,314572096.00000000,0.00000000,0.00000000,35.00000000,0.04826749,0.27787781,10.11889553,-0.05847061,-0.04476979,-0.08149614,0.20991680,0.05227937,-0.54126364,0.00538282,-0.01444629,0.80209011,0.32681143,-0.69682646,11.89960003,0.99947852,0.02923909,0.01369883,0.00040075,0.00362981,-0.00460813,0.02771269,-0.07971697,-0.08940202,0.00701841,21177228.00000000,-0.00000000,-3146434217177513984.00000000,4267.56494141,-3211728715192991744.00000000,0.00000000,-0.00000000,0.00000000,75.03138733,-2594362831801417728.00000000,17729961695711069818766217105637376.00000000,0.00000000
-0.42115605,0.37090448,8.74138069,0.00106423,-0.06811041,-0.07662421,0.23916626,0.08407593,-0.49142456,0.00000000,-0.00000000,0.31000000,0.00200000,-0.00100000,0.01000000,0.99096209,0.02405182,0.00830768,-0.13170703,-0.00914539,0.02444702,-0.00536378,-0.17401536,0.36987314,-0.13865867,-0.00845297,0.00072571,-0.03937629,0.07446961,0.02680044,-0.00335529,0.02208341,0.01271905,0.01222188,-2.87268543,-1.98984122,13.53971291,0.52359879,0.00000000,0.00000000,2.00000000,0.05329700,0.00000000,1.00000000,84.19273376,30.00000000,314572096.00000000,0.00000000,0.00000000,35.00000000,0.04957030,0.28886878,10.13508129,-0.06115511,-0.04840556,-0.08496977,0.20843790,0.05033378,-0.54456627,0.00548723,-0.01466821,0.80214548,0.32680434,-0.69687206,11.89954662,0.99947846,0.02924113,0.01369859,0.00040077,0.00369970,-0.00469762,0.02827717,-0.07971384,-0.08939289,0.00715036,21177228.00000000,-0.00000000,-3146434217177513984.00000000,4267.56494141,-3211728715192991744.00000000,0.00000000,-0.00000000,0.00000000,75.03138733,-2594362831801417728.00000000,17729961695711069818766217105637376.00000000,0.00000000
-1.37115014,0.13879006,8.64805698,-0.00106423,-0.06278928,-0.04682591,0.24020386,0.08370972,-0.48947144,0.00000000,-0.00000000,0.31000000,0.00200000,-0.00100000,0.01000000,0.99095911,0.02401204,0.00827951,-0.13173868,-0.00936980,0.02492414,-0.00554221,-0.17382519,0.36956996,-0.13821259,-0.00845297,0.00072571,-0.03937629,0.07446961,0.02680044,-0.00335529,0.02208341,0.01271905,0.01222188,-2.88540101,-1.99990296,13.54044247,0.52359879,0.00000000,0.00000000,2.00000000,0.05458800,0.00000000,1.00000000,84.20267487,30.00000000,314572096.00000000,0.00000000,0.00000000,35.00000000,0.04715131,0.29967135,10.14376163,-0.06324887,-0.05178254,-0.08803088,0.20727664,0.04876779,-0.54724503,0.00562188,-0.01495448,0.80221695,0.32679459,-0.69695711,11.89945126,0.99947834,0.02924493,0.01369828,0.00040081,0.00378988,-0.00481314,0.02900563,-0.07970975,-0.08938106,0.00732075,21177228.00000000,-0.00000000,-3146434217177513984.00000000,4267.56494141,-3211728715192991744.00000000,0.00000000,-0.00000000,0.00000000,75.03138733,-2594362831801417728.00000000,17729961695711069818766217105637376.00000000,0.00000000
-0.99306685,-0.46422884,9.45686817,0.00106423,-0.05746816,-0.04576168,0.24020386,0.08370972,-0.48947144,0.00000000,-0.00000000,0.31000000,0.00200000,-0.00100000,0.01000000,0.99095726,0.02398953,0.00826306,-0.13175695,-0.00949279,0.02518568,-0.00563989,-0.17372483,0.36941156,-0.13796613,-0.00845297,0.00072571,-0.03937629,0.07446961,0.02680044,-0.00335529,0.02208341,0.01271905,0.01222188,-2.89751506,-2.00878668,13.54085922,0.52359879,0.00000000,0.00000000,2.00000000,0.05529600,0.00000000,1.00000000,84.20835114,30.00000000,314572096.00000000,0.00000000,0.00000000,35.00000000,0.03923846,0.30864468,10.14573288,-0.06478862,-0.05489428,-0.09062500,0.20640866,0.04754970,-0.54934359,0.00569568,-0.01511141,0.80225593,0.32679620,-0.69701785,11.89939404,0.99947828,0.02924761,0.01369841,0.00040085,0.00383931,-0.00487649,0.02940503,-0.07970748,-0.08937456,0.00741420,21177228.00000000,-0.00000000,-3146434217177513984.00000000,4267.56494141,-3211728715192991744.00000000,0.00000000,-0.00000000,0.00000000,75.03138733,-2594362831801417728.00000000,17729961695711069818766217105637376.00000000,0.00000000
-0.64609170,0.14118299,10.43557739,0.00532113,-0.04044056,-0.05853238,0.24020386,0.08370972,-0.48947144,0.00000000,-0.00000000,0.31000000,0.00200000,-0.00100000,0.01000000,0.99095470,0.02395704,0.00823853,-0.13178386,-0.00966639,0.02555488,-0.00577751,-0.17359410,0.36919785,-0.13761924,-0.00845297,0.00072571,-0.03937629,0.07446961,0.02680044,-0.00335529,0.02208341,0.01271905,0.01222188,-2.90911746,-2.01649547,13.54147339,0.52359879,0.00000000,0.00000000,2.00000000,0.05629600,0.00000000,1.00000000,84.21672058,30.00000000,314572096.00000000,0.00000000,0.00000000,35.00000000,0.02659084,0.31475848,10.14391708,-0.06580752,-0.05770708,-0.09276315,0.20580930,0.04664948,-0.55090791,0.00579983,-0.01533293,0.80231106,0.32681817,-0.69712132,11.89931583,0.99947810,0.02925213,0.01369941,0.00040095,0.00390910,-0.00496595,0.02996899,-0.07970425,-0.08936536,0.00754623,21177228.00000000,-0.00000000,-3146434217177513984.00000000,4267.56494141,-3211728715192991744.00000000,0.00000000,-0.00000000,0.00000000,75.03138733,-2594362831801417728.00000000,17729961695711069818766217105637376.00000000,0.00000000
-0.62216234,0.47380057,10.73469353,-0.00000000,-0.03405520,-0.07023886,0.23934937,0.08364868,-0.48788452,0.00000000,-0.00000000,0.31000000,0.00200000,-0.00100000,0.01000000,0.99095124,0.02391450,0.00820533,-0.13181978,-0.00989048,0.02603154,-0.00595474,-0.17344403,0.36893359,-0.13717380,-0.00845297,0.00072571,-0.03937629,0.07446961,0.02680044,-0.00335529,0.02208341,0.01271905,0.01222188,-2.92028856,-2.02306676,13.54229259,0.52359879,0.00000000,0.00000000,2.00000000,0.05758800,0.00000000,1.00000000,84.22787476,30.00000000,314572096.00000000,0.00000000,0.00000000,35.00000000,0.01094780,0.31895190,10.14123344,-0.06634924,-0.06016996,-0.09450156,0.20545393,0.04603949,-0.55198205,0.00593429,-0.01561892,0.80238193,0.32688019,-0.69727606,11.89922047,0.99947786,0.02925884,0.01370210,0.00040112,0.00399924,-0.00508151,0.03069733,-0.07970001,-0.08935341,0.00771685,21177228.00000000,-0.00000000,-3146434217177513984.00000000,4267.56494141,-3211728715192991744.00000000,0.00000000,-0.00000000,0.00000000,75.03138733,-2594362831801417728.00000000,17729961695711069818766217105637376.00000000,0.00000000
-0.54319561,-0.39961967,10.42361259,-0.00532113,-0.04044056,-0.06278928,0.23934937,0.08364868,-0.48788452,0.00000000,-0.00000000,0.31000000,0.00200000,-0.00100000,0.01000000,0.99094927,0.02389097,0.00818636,-0.13184002,-0.01001357,0.02629338,-0.00605196,-0.17337362,0.36879373,-0.13693011,-0.00845297,0.00072571,-0.03937629,0.07446961,0.02680044,-0.00335529,0.02208341,0.01271905,0.01222188,-2.93112063,-2.02857542,13.54275227,0.52359879,0.00000000,0.00000000,2.00000000,0.05829800,0.00000000,1.00000000,84.23413849,30.00000000,314572096.00000000,0.00000000,0.00000000,35.00000000,-0.00693066,0.32126966,10.13917542,-0.06648006,-0.06226816,-0.09587669,0.20531920,0.04569396,-0.55260515,0.00600814,-0.01577603,0.80242079,0.32693595,-0.69737059,11.89916992,0.99947774,0.02926292,0.01370449,0.00040124,0.00404876,-0.00514500,0.03109750,-0.07969766,-0.08934683,0.00781063,21177228.00000000,-0.00000000,-3146434217177513984.00000000,4267.56494141,-3211728715192991744.00000000,0.00000000,-0.00000000,0.00000000,75.03138733,-2594362831801417728.00000000,17729961695711069818766217105637376.00000000,0.00000000
-0.84470505,-0.67959273,10.82083893,-0.00638535,-0.02979830,-0.04789013,0.23934937,0.08364868,-0.48788452,0.00000000,-0.00000000,0.31000000,0.00200000,-0.00100000,0.01000000,0.99094641,0.02385783,0.00815878,-0.13186906,-0.01018687,0.02666199,-0.00618855,-0.17329437,0.36860129,-0.13658641,-0.00845297,0.00072571,-0.03937629,0.07446961,0.02680044,-0.00335529,0.02208341,0.01271905,0.01222188,-2.94165611,-2.03308153,13.54339981,0.52359879,0.00000000,0.00000000,2.00000000,0.05929800,0.00000000,1.00000000,84.24296570,30.00000000,314572096.00000000,0.00000000,0.00000000,35.00000000,-0.02670263,0.31988350,10.13922977,-0.06626183,-0.06401411,-0.09689428,0.20538342,0.04558849,-0.55281657,0.00611212,-0.01599719,0.80247545,0.32705015,-0.69751167,11.89909744,0.99947751,0.02926900,0.01370935,0.00040147,0.00411848,-0.00523442,0.03166094,-0.07969432,-0.08933754,0.00794274,21177228.00000000,-0.00000000,-3146434217177513984.00000000,4267.56494141,-3211728715192991744.00000000,0.00000000,-0.00000000,0.00000000,75.03138733,-2594362831801417728.00000000,17729961695711069818766217105637376.00000000,0.00000000
-2.15603185,-0.50490868,11.36642742,-0.00638535,-0.00744958,-0.01170648,0.23800659,0.08474731,-0.48660278,0.00000000,-0.00000000,0.31000000,0.00200000,-0.00100000,0.01000000,0.99094272,0.02381525,0.00812227,-0.13190697,-0.01041050,0.02713753,-0.00636430,-0.17322344,0.36835486,-0.13613607,-0.00845297,0.00072571,-0.03937629,0.07446961,0.02680044,-0.00335529,0.02208341,0.01271905,0.01222188,-2.95192957,-2.03666115,13.54421806,0.52359879,0.00000000,0.00000000,2.00000000,0.06058900,0.00000000,1.00000000,84.25411224,30.00000000,314572096.00000000,0.00000000,0.00000000,35.00000000,-0.04984970,0.31449822,10.14408016,-0.06573592,-0.06538333,-0.09752787,0.20562384,0.04570083,-0.55265439,0.00624630,-0.01628252,0.80254573,0.32725400,-0.69769716,11.89898872,0.99947715,0.02927702,0.01371800,0.00040183,0.00420849,-0.00534985,0.03238804,-0.07968993,-0.08932547,0.00811334,21177228.00000000,-0.00000000,-3146434217177513984.00000000,4267.56494141,-3211728715192991744.00000000,0.00000000,-0.00000000,0.00000000,75.03138733,-2594362831801417728.00000000,17729961695711069818766217105637376.00000000,0.00000000
-2.62743950,-0.37808329,10.49779320,-0.00212845,0.03086253,-0.00957803,0.23800659,0.08474731,-0.48660278,0.00000000,-0.00000000,0.31000000,0.00200000,-0.00100000,0.01000000,0.99094069,0.02379218,0.00810191,-0.13192782,-0.01053296,0.02739786,-0.00646037,-0.17320657,0.36821973,-0.13588215,-0.00845297,0.00072571,-0.03937629,0.07446961,0.02680044,-0.00335529,0.02208341,0.01271905,0.01222188,-2.96200371,-2.03947449,13.54464054,0.52359879,0.00000000,0.00000000,2.00000000,0.06129600,0.00000000,1.00000000,84.25986481,30.00000000,314572096.00000000,0.00000000,0.00000000,35.00000000,-0.07954839,0.30617830,10.15410805,-0.06493220,-0.06629880,-0.09773792,0.20601675,0.04601049,-0.55215394,0.00631977,-0.01643872,0.80258417,0.32740518,-0.69779825,11.89891243,0.99947691,0.02928144,0.01372441,0.00040208,0.00425776,-0.00541304,0.03278614,-0.07968751,-0.08931883,0.00820678,21177228.00000000,-0.00000000,-3146434217177513984.00000000,4267.56494141,-3211728715192991744.00000000,0.00000000,-0.00000000,0.00000000,75.03138733,-2594362831801417728.00000000,17729961695711069818766217105637376.00000000,0.00000000
-1.96220434,0.96913749,9.82298660,-0.00744958,0.06278928,-0.03724788,0.23800659,0.08474731,-0.48660278,0.00000000,-0.00000000,0.31000000,0.00200000,-0.00100000,0.01000000,0.99093777,0.02376000,0.00807285,-0.13195725,-0.01070635,0.02776626,-0.00659601,-0.17322162,0.36802921,-0.13551083,-0.00845297,0.00072571,-0.03937629,0.07446961,0.02680044,-0.00335529,0.02208341,0.01271905,0.01222188,-2.97190428,-2.04169226,13.54519749,0.52359879,0.00000000,0.00000000,2.00000000,0.06229700,0.00000000,1.00000000,84.26745605,30.00000000,314572096.00000000,0.00000000,0.00000000,35.00000000,-0.11687982,0.29672107,10.16551018,-0.06388468,-0.06665507,-0.09754640,0.20654237,0.04649664,-0.55135119,0.00642381,-0.01665976,0.80263847,0.32768932,-0.69794267,11.89877892,0.99947661,0.02928781,0.01373645,0.00040252,0.00432754,-0.00550250,0.03334959,-0.07968405,-0.08930941,0.00833911,21177228.00000000,-0.00000000,-3146434217177513984.00000000,4267.56494141,-3211728715192991744.00000000,0.00000000,-0.00000000,0.00000000,75.03138733,-2594362831801417728.00000000,17729961695711069818766217105637376.00000000,0.00000000
-0.35176101,0.23690028,8.44705009,-0.02234873,0.09258759,-0.03086253,0.23690796,0.08651733,-0.48458862,0.00000000,-0.00000000,0.31000000,0.00200000,-0.00100000,0.01000000,0.99093401,0.02371932,0.00803544,-0.13199486,-0.01093008,0.02824107,-0.00677033,-0.17329718,0.36778721,-0.13502127,-0.00845297,0.00072571,-0.03937629,0.07446961,0.02680044,-0.00335529,0.02208341,0.01271905,0.01222188,-2.98163915,-2.04353309,13.54586887,0.52359879,0.00000000,0.00000000,2.00000000,0.06358800,0.00000000,1.00000000,84.27659607,30.00000000,314572096.00000000,0.00000000,0.00000000,35.00000000,-0.15892726,0.28774068,10.17323303,-0.06265369,-0.06634579,-0.09699996,0.20718312,0.04714132,-0.55027854,0.00655805,-0.01694464,0.80270815,0.32815698,-0.69813520,11.89858055,0.99947602,0.02929635,0.01375626,0.00040322,0.00441756,-0.00561786,0.03407596,-0.07967953,-0.08929718,0.00850982,21177228.00000000,-0.00000000,-3146434217177513984.00000000,4267.56494141,-3211728715192991744.00000000,0.00000000,-0.00000000,0.00000000,75.03138733,-2594362831801417728.00000000,17729961695711069818766217105637376.00000000,0.00000000
1.05528307,-0.11964661,8.90888596,-0.00106423,0.09578026,0.00000000,0.23690796,0.08651733,-0.48458862,0.00000000,-0.00000000,0.31000000,0.00200000,-0.00100000,0.01000000,0.99093199,0.02369751,0.00801520,-0.13201518,-0.01105300,0.02850174,-0.00686586,-0.17336890,0.36765596,-0.13475126,-0.00845297,0.00072571,-0.03937629,0.07446961,0.02680044,-0.00335529,0.02208341,0.01271905,0.01222188,-2.99123502,-2.04532337,13.54622078,0.52359879,0.00000000,0.00000000,2.00000000,0.06429700,0.00000000,1.00000000,84.28139496,30.00000000,314572096.00000000,0.00000000,0.00000000,35.00000000,-0.20024277,0.27848917,10.17434311,-0.06127679,-0.06529794,-0.09606837,0.20792153,0.04793011,-0.54896390,0.00663180,-0.01710105,0.80274642,0.32846826,-0.69824380,11.89846992,0.99947572,0.02930116,0.01376942,0.00040367,0.00446700,-0.00568119,0.03447477,-0.07967702,-0.08929043,0.00860359,21177228.00000000,-0.00000000,-3146434217177513984.00000000,4267.56494141,-3211728715192991744.00000000,0.00000000,-0.00000000,0.00000000,75.03138733,-2594362831801417728.00000000,17729961695711069818766217105637376.00000000,0.00000000
1.56497765,1.42858052,10.50736523,0.00957803,0.10216562,0.02554140,0.23690796,0.08651733,-0.48458862,0.00000000,-0.00000000,0.31000000,0.00200000,-0.00100000,0.01000000,0.99092925,0.02366764,0.00798742,-0.13204317,-0.01122650,0.02886922,-0.00700024,-0.17350656,0.36747313,-0.13437335,-0.00845297,0.00072571,-0.03937629,0.07446961,0.02680044,-0.00335529,0.02208341,0.01271905,0.01222188,-3.00071359,-2.04732537,13.54670238,0.52359879,0.00000000,0.00000000,2.00000000,0.06529700,0.00000000,1.00000000,84.28795624,30.00000000,314572096.00000000,0.00000000,0.00000000,35.00000000,-0.23535496,0.27048048,10.17098904,-0.05972673,-0.06349598,-0.09469550,0.20874263,0.04884665,-0.54743612,0.00673590,-0.01732153,0.80280012,0.32897320,-0.69840086,11.89831924,0.99947518,0.02930810,0.01379073,0.00040439,0.00453677,-0.00577050,0.03503707,-0.07967346,-0.08928087,0.00873588,21177228.00000000,-0.00000000,-3146434217177513984.00000000,4267.56494141,-3211728715192991744.00000000,0.00000000,-0.00000000,0.00000000,75.03138733,-2594362831801417728.00000000,17729961695711069818766217105637376.00000000,0.00000000
1.86648703,1.08399820,10.63897610,0.00957803,0.09365182,-0.01064225,0.23782349,0.08596802,-0.48446655,0.00000000,-0.00000000,0.31000000,0.00200000,-0.00100000,0.01000000,0.99092573,0.02363043,0.00795299,-0.13207811,-0.01145077,0.02934333,-0.00717309,-0.17371663,0.36724317,-0.13388994,-0.00845297,0.00072571,-0.03937629,0.07446961,0.02680044,-0.00335529,0.02208341,0.01271905,0.01222188,-3.01011205,-2.04978251,13.54730415,0.52359879,0.00000000,0.00000000,2.00000000,0.06658800,0.00000000,1.00000000,84.29615021,30.00000000,314572096.00000000,0.00000000,0.00000000,35.00000000,-0.25991219,0.26762417,10.16710472,-0.05798760,-0.06098135,-0.09293617,0.20963426,0.04987282,-0.54572403,0.00687046,-0.01760600,0.80286926,0.32968366,-0.69861424,11.89813328,0.99947453,0.02931747,0.01382069,0.00040540,0.00462691,-0.00588577,0.03576269,-0.07966881,-0.08926845,0.00890670,21177228.00000000,-0.00000000,-3146434217177513984.00000000,4267.56494141,-3211728715192991744.00000000,0.00000000,-0.00000000,0.00000000,75.03138733,-2594362831801417728.00000000,17729961695711069818766217105637376.00000000,0.00000000
1.37115014,0.65566343,9.25346851,0.03192675,0.09258759,-0.05853238,0.23782349,0.08596802,-0.48446655,0.00000000,-0.00000000,0.31000000,0.00200000,-0.00100000,0.01000000,0.99092388,0.02361084,0.00793510,-0.13209657,-0.01157385,0.02960325,-0.00726770,-0.17383958,0.36712098,-0.13362812,-0.00845297,0.00072571,-0.03937629,0.07446961,0.02680044,-0.00335529,0.02208341,0.01271905,0.01222188,-3.01949883,-2.05298853,13.54762268,0.52359879,0.00000000,0.00000000,2.00000000,0.06729600,0.00000000,1.00000000,84.30049133,30.00000000,314572096.00000000,0.00000000,0.00000000,35.00000000,-0.27139872,0.26954091,10.16211891,-0.05605416,-0.05784813,-0.09097321,0.21058573,0.05099127,-0.54385430,0.00694431,-0.01776195,0.80290711,0.33008739,-0.69873822,11.89803886,0.99947411,0.02932288,0.01383771,0.00040598,0.00467636,-0.00594897,0.03616052,-0.07966623,-0.08926161,0.00900039,21177228.00000000,-0.00000000,-3146434217177513984.00000000,4267.56494141,-3211728715192991744.00000000,0.00000000,-0.00000000,0.00000000,75.03138733,-2594362831801417728.00000000,17729961695711069818766217105637376.00000000,0.00000000
2.15124607,0.83991915,8.34893990,0.04150478,0.10003716,-0.03831211,0.23782349,0.08596802,-0.48446655,0.00000000,-0.00000000,0.31000000,0.00200000,-0.00100000,0.01000000,0.99092138,0.02358451,0.00791147,-0.13212159,-0.01174786,0.02997020,-0.00740097,-0.17401047,0.36695310,-0.13326758,-0.00845297,0.00072571,-0.03937629,0.07446961,0.02680044,-0.00335529,0.02208341,0.01271905,0.01222188,-3.02894640,-2.05710220,13.54806805,0.52359879,0.00000000,0.00000000,2.00000000,0.06829600,0.00000000,1.00000000,84.30655670,30.00000000,314572096.00000000,0.00000000,0.00000000,35.00000000,-0.26920426,0.27390721,10.15268040,-0.05388164,-0.05419888,-0.08891911,0.21158646,0.05218616,-0.54185259,0.00704872,-0.01798212,0.80296040,0.33065277,-0.69892156,11.89792442,0.99947357,0.02933083,0.01386151,0.00040678,0.00474625,-0.00603822,0.03672226,-0.07966258,-0.08925189,0.00913275,21177228.00000000,-0.00000000,-3146434217177513984.00000000,4267.56494141,-3211728715192991744.00000000,0.00000000,-0.00000000,0.00000000,75.03138733,-2594362831801417728.00000000,17729961695711069818766217105637376.00000000,0.00000000
1.11510634,0.11725368,8.33697510,0.04256901,0.10535829,-0.00851380,0.23745728,0.08602905,-0.48403931,0.00000000,-0.00000000,0.31000000,0.00200000,-0.00100000,0.01000000,0.99091822,0.02355239,0.00788330,-0.13215248,-0.01197312,0.03044439,-0.00757270,-0.17421278,0.36674026,-0.13282090,-0.00845297,0.00072571,-0.03937629,0.07446961,0.02680044,-0.00335529,0.02208341,0.01271905,0.01222188,-3.03854656,-2.06225514,13.54865360,0.52359879,0.00000000,0.00000000,2.00000000,0.06958900,0.00000000,1.00000000,84.31453705,30.00000000,314572096.00000000,0.00000000,0.00000000,35.00000000,-0.25515947,0.27956030,10.13764191,-0.05144052,-0.05010571,-0.08671687,0.21262638,0.05344288,-0.53974307,0.00718387,-0.01826664,0.80302906,0.33135062,-0.69916600,11.89781857,0.99947286,0.02934131,0.01389086,0.00040779,0.00483668,-0.00615359,0.03744829,-0.07965780,-0.08923925,0.00930393,21177228.00000000,-0.00000000,-3146434217177513984.00000000,4267.56494141,-3211728715192991744.00000000,0.00000000,-0.00000000,0.00000000,75.03138733,-2594362831801417728.00000000,17729961695711069818766217105637376.00000000,0.00000000
0.26322255,0.30629531,8.97110271,0.04576168,0.10322984,-0.00212845,0.23745728,0.08602905,-0.48403931,0.00000000,-0.00000000,0.31000000,0.00200000,-0.00100000,0.01000000,0.99091655,0.02353594,0.00786928,-0.13216855,-0.01209670,0.03070433,-0.00766671,-0.17430906,0.36662471,-0.13258998,-0.00845297,0.00072571,-0.03937629,0.07446961,0.02680044,-0.00335529,0.02208341,0.01271905,0.01222188,-3.04841065,-2.06863165,13.54898834,0.52359879,0.00000000,0.00000000,2.00000000,0.07029800,0.00000000,1.00000000,84.31909943,30.00000000,314572096.00000000,0.00000000,0.00000000,35.00000000,-0.23487143,0.28539205,10.11803818,-0.04873983,-0.04562445,-0.08432163,0.21369630,0.05474780,-0.53754759,0.00725802,-0.01842260,0.80306673,0.33170703,-0.69930196,11.89779091,0.99947250,0.02934707,0.01390581,0.00040831,0.00488628,-0.00621683,0.03784632,-0.07965516,-0.08923230,0.00939781,21177228.00000000,-0.00000000,-3146434217177513984.00000000,4267.56494141,-3211728715192991744.00000000,0.00000000,-0.00000000,0.00000000,75.03138733,-2594362831801417728.00000000,17729961695711069818766217105637376.00000000,0.00000000
1.62480092,0.39004794,8.60019779,0.05214703,0.10961519,0.00000000,0.23745728,0.08602905,-0.48403931,0.00000000,-0.00000000,0.31000000,0.00200000,-0.00100000,0.01000000,0.99091434,0.02351453,0.00785168,-0.13218990,-0.01227112,0.03107080,-0.00779900,-0.17442133,0.36646295,-0.13228895,-0.00845297,0.00072571,-0.03937629,0.07446961,0.02680044,-0.00335529,0.02208341,0.01271905,0.01222188,-3.05862761,-2.07632399,13.54948997,0.52359879,0.00000000,0.00000000,2.00000000,0.07129800,0.00000000,1.00000000,84.32592773,30.00000000,314572096.00000000,0.00000000,0.00000000,35.00000000,-0.21154778,0.29122421,10.09358025,-0.04579397,-0.04079525,-0.08178397,0.21478748,0.05608885,-0.53528625,0.00736267,-0.01864248,0.80311960,0.33216748,-0.69949573,11.89780617,0.99947196,0.02935513,0.01392507,0.00040899,0.00495627,-0.00630602,0.03840757,-0.07965142,-0.08922246,0.00953024,21177228.00000000,-0.00000000,-3146434217177513984.00000000,4267.56494141,-3211728715192991744.00000000,0.00000000,-0.00000000,0.00000000,75.03138733,-2594362831801417728.00000000,17729961695711069818766217105637376.00000000,0.00000000
1.93348920,0.15793352,7.93496275,0.05746816,0.13515660,0.01915605,0.23776245,0.08517456,-0.48397827,0.00000000,-0.00000000,0.31000000,0.00200000,-0.00100000,0.01000000,0.99091166,0.02348931,0.00783191,-0.13221575,-0.01249696,0.03154473,-0.00796973,-0.17452949,0.36625355,-0.13194129,-0.00845297,0.00072571,-0.03937629,0.07446961,0.02680044,-0.00335529,0.02208341,0.01271905,0.01222188,-3.06928444,-2.08543801,13.55019951,0.52359879,0.00000000,0.00000000,2.00000000,0.07259200,0.00000000,1.00000000,84.33560181,30.00000000,314572096.00000000,0.00000000,0.00000000,35.00000000,-0.18269576,0.29681027,10.06156063,-0.04261802,-0.03561404,-0.07911444,0.21589153,0.05745452,-0.53297734,0.00749818,-0.01892684,0.80318785,0.33269668,-0.69974613,11.89791775,0.99947137,0.02936533,0.01394709,0.00040978,0.00504688,-0.00642142,0.03913360,-0.07964654,-0.08920967,0.00970163,21177228.00000000,-0.00000000,-3146434217177513984.00000000,4267.56494141,-3211728715192991744.00000000,0.00000000,-0.00000000,0.00000000,75.03138733,-2594362831801417728.00000000,17729961695711069818766217105637376.00000000,0.00000000
-0.30390239,-0.20339923,7.57602310,0.05214703,0.13941349,0.01809183,0.23776245,0.08517456,-0.48397827,0.00000000,-0.00000000,0.31000000,0.00200000,-0.00100000,0.01000000,0.99091029,0.02347702,0.00782289,-0.13222881,-0.01262003,0.03180286,-0.00806264,-0.17456524,0.36613753,-0.13178135,-0.00845297,0.00072571,-0.03937629,0.07446961,0.02680044,-0.00335529,0.02208341,0.01271905,0.01222188,-3.08046603,-2.09613800,13.55063915,0.52359879,0.00000000,0.00000000,2.00000000,0.07329700,0.00000000,1.00000000,84.34159088,30.00000000,314572096.00000000,0.00000000,0.00000000,35.00000000,-0.14913760,0.30071017,10.02025509,-0.03924506,-0.03006570,-0.07624473,0.21700077,0.05883354,-0.53063738,0.00757202,-0.01908172,0.80322504,0.33294332,-0.69987887,11.89804363,0.99947107,0.02937057,0.01395726,0.00041015,0.00509625,-0.00648428,0.03952911,-0.07964386,-0.08920269,0.00979502,21177228.00000000,-0.00000000,-3146434217177513984.00000000,4267.56494141,-3211728715192991744.00000000,0.00000000,-0.00000000,0.00000000,75.03138733,-2594362831801417728.00000000,17729961695711069818766217105637376.00000000,0.00000000
-1.00263858,-0.70830792,8.38004875,0.04682591,0.12238589,0.00212845,0.23776245,0.08517456,-0.48397827,0.00000000,-0.00000000,0.31000000,0.00200000,-0.00100000,0.01000000,0.99090850,0.02346173,0.00781274,-0.13224572,-0.01279462,0.03216883,-0.00819424,-0.17458525,0.36596775,-0.13160343,-0.00845297,0.00072571,-0.03937629,0.07446961,0.02680044,-0.00335529,0.02208341,0.01271905,0.01222188,-3.09222436,-2.10851789,13.55135059,0.52359879,0.00000000,0.00000000,2.00000000,0.07429700,0.00000000,1.00000000,84.35128021,30.00000000,314572096.00000000,0.00000000,0.00000000,35.00000000,-0.11684017,0.30127585,9.97191429,-0.03572759,-0.02420875,-0.07315150,0.21810868,0.06021633,-0.52828193,0.00767677,-0.01930130,0.80327767,0.33323792,-0.70005769,11.89832878,0.99947071,0.02937734,0.01396925,0.00041060,0.00516629,-0.00657343,0.04009004,-0.07964005,-0.08919276,0.00992751,21177228.00000000,-0.00000000,-3146434217177513984.00000000,4267.56494141,-3211728715192991744.00000000,0.00000000,-0.00000000,0.00000000,75.03138733,-2594362831801417728.00000000,17729961695711069818766217105637376.00000000,0.00000000
0.17707698,-0.38765502,9.25107574,0.04789013,0.11812899,0.02447718,0.24172974,0.08670044,-0.48294067,0.00000000,-0.00000000,0.31000000,0.00200000,-0.00100000,0.01000000,0.99090636,0.02344483,0.00780315,-0.13226539,-0.01302000,0.03264100,-0.00836393,-0.17457695,0.36573830,-0.13144009,-0.00845297,0.00072571,-0.03937629,0.07446961,0.02680044,-0.00335529,0.02208341,0.01271905,0.01222188,-3.10459781,-2.12263083,13.55239582,0.52359879,0.00000000,0.00000000,2.00000000,0.07558800,0.00000000,1.00000000,84.36551666,30.00000000,314572096.00000000,0.00000000,0.00000000,35.00000000,-0.08790696,0.29796225,9.92123795,-0.03210862,-0.01814621,-0.06986556,0.21921490,0.06159624,-0.52592432,0.00781200,-0.01958460,0.80334562,0.33355683,-0.70026976,11.89884281,0.99947029,0.02938495,0.01398200,0.00041108,0.00525674,-0.00668852,0.04081412,-0.07963511,-0.08917991,0.01009857,21177228.00000000,-0.00000000,-3146434217177513984.00000000,4267.56494141,-3211728715192991744.00000000,0.00000000,-0.00000000,0.00000000,75.03138733,-2594362831801417728.00000000,17729961695711069818766217105637376.00000000,0.00000000
1.44293809,0.72745138,9.61001587,0.06598196,0.10110139,0.07981689,0.24172974,0.08670044,-0.48294067,0.00000000,-0.00000000,0.31000000,0.00200000,-0.00100000,0.01000000,0.99090528,0.02343716,0.00779985,-0.13227491,-0.01314376,0.03290021,-0.00845708,-0.17455412,0.36560526,-0.13138628,-0.00845297,0.00072571,-0.03937629,0.07446961,0.02680044,-0.00335529,0.02208341,0.01271905,0.01222188,-3.11762238,-2.13849854,13.55303955,0.52359879,0.00000000,0.00000000,2.00000000,0.07629700,0.00000000,1.00000000,84.37429047,30.00000000,314572096.00000000,0.00000000,0.00000000,35.00000000,-0.05926681,0.29279664,9.87138939,-0.02839234,-0.01196365,-0.06634793,0.22032362,0.06296863,-0.52357548,0.00788625,-0.01974013,0.80338287,0.33369908,-0.70037341,11.89920425,0.99947011,0.02938839,0.01398752,0.00041129,0.00530641,-0.00675172,0.04121177,-0.07963238,-0.08917285,0.01019252,21177228.00000000,-0.00000000,-3146434217177513984.00000000,4267.56494141,-3211728715192991744.00000000,0.00000000,-0.00000000,0.00000000,75.03138733,-2594362831801417728.00000000,17729961695711069818766217105637376.00000000,0.00000000
1.31371975,1.00263858,10.74426556,0.07662421,0.06491774,0.08194534,0.24172974,0.08670044,-0.48294067,0.00000000,-0.00000000,0.31000000,0.00200000,-0.00100000,0.01000000,0.99090397,0.02342866,0.00779796,-0.13228640,-0.01331825,0.03326562,-0.00858844,-0.17449425,0.36540824,-0.13135816,-0.00845297,0.00072571,-0.03937629,0.07446961,0.02680044,-0.00335529,0.02208341,0.01271905,0.01222188,-3.13135266,-2.15608311,13.55403328,0.52359879,0.00000000,0.00000000,2.00000000,0.07729700,0.00000000,1.00000000,84.38782501,30.00000000,314572096.00000000,0.00000000,0.00000000,35.00000000,-0.02902603,0.28874078,9.82439232,-0.02455714,-0.00578433,-0.06252994,0.22143321,0.06432821,-0.52124619,0.00799095,-0.01995937,0.80343544,0.33384982,-0.70050257,11.89981842,0.99946994,0.02939229,0.01399311,0.00041151,0.00537646,-0.00684086,0.04177265,-0.07962853,-0.08916288,0.01032505,21177228.00000000,-0.00000000,-3146434217177513984.00000000,4267.56494141,-3211728715192991744.00000000,0.00000000,-0.00000000,0.00000000,75.03138733,-2594362831801417728.00000000,17729961695711069818766217105637376.00000000,0.00000000
0.86145556,0.19143458,13.16591263,0.07130308,0.02554140,0.01915605,0.23709106,0.08596802,-0.48367310,0.00000000,-0.00000000,0.31000000,0.00200000,-0.00100000,0.01000000,0.99090254,0.02342074,0.00779895,-0.13229857,-0.01354337,0.03373702,-0.00875804,-0.17437960,0.36514264,-0.13137217,-0.00845297,0.00072571,-0.03937629,0.07446961,0.02680044,-0.00335529,0.02208341,0.01271905,0.01222188,-3.14584541,-2.17526841,13.55540371,0.52359879,0.00000000,0.00000000,2.00000000,0.07858800,0.00000000,1.00000000,84.40649414,30.00000000,314572096.00000000,0.00000000,0.00000000,35.00000000,0.00202140,0.28604501,9.78615856,-0.02060836,0.00019718,-0.05848644,0.22253308,0.06566917,-0.51894718,0.00812603,-0.02024221,0.80350322,0.33397701,-0.70064867,11.90072250,0.99946976,0.02939617,0.01399737,0.00041169,0.00546690,-0.00695593,0.04249680,-0.07962354,-0.08915000,0.01049615,21177228.00000000,-0.00000000,-3146434217177513984.00000000,4267.56494141,-3211728715192991744.00000000,0.00000000,-0.00000000,0.00000000,75.03138733,-2594362831801417728.00000000,17729961695711069818766217105637376.00000000,0.00000000
-1.78034151,-1.29218340,13.62056923,0.07023886,0.02022028,-0.04256901,0.23709106,0.08596802,-0.48367310,0.00000000,-0.00000000,0.31000000,0.00200000,-0.00100000,0.01000000,0.99090189,0.02341808,0.00780124,-0.13230379,-0.01366695,0.03399580,-0.00885120,-0.17429778,0.36498925,-0.13139555,-0.00845297,0.00072571,-0.03937629,0.07446961,0.02680044,-0.00335529,0.02208341,0.01271905,0.01222188,-3.16112018,-2.19583392,13.55617428,0.52359879,0.00000000,0.00000000,2.00000000,0.07929700,0.00000000,1.00000000,84.41699219,30.00000000,314572096.00000000,0.00000000,0.00000000,35.00000000,0.03091009,0.28174713,9.76482296,-0.01657848,0.00580638,-0.05442522,0.22360986,0.06698623,-0.51668847,0.00820017,-0.02039748,0.80354053,0.33401287,-0.70071518,11.90125465,0.99946970,0.02939764,0.01399824,0.00041173,0.00551657,-0.00701913,0.04289452,-0.07962079,-0.08914293,0.01059012,21177228.00000000,-0.00000000,-3146434217177513984.00000000,4267.56494141,-3211728715192991744.00000000,0.00000000,-0.00000000,0.00000000,75.03138733,-2594362831801417728.00000000,17729961695711069818766217105637376.00000000,0.00000000
-4.27856255,-1.04331839,10.57197380,0.07768843,0.03405520,-0.00106423,0.23709106,0.08596802,-0.48367310,0.00000000,-0.00000000,0.31000000,0.00200000,-0.00100000,0.01000000,0.99090117,0.02341672,0.00780671,-0.13230914,-0.01384112,0.03436056,-0.00898263,-0.17416535,0.36475986,-0.13143353,-0.00845297,0.00072571,-0.03937629,0.07446961,0.02680044,-0.00335529,0.02208341,0.01271905,0.01222188,-3.17721844,-2.21756721,13.55724049,0.52359879,0.00000000,0.00000000,2.00000000,0.08029700,0.00000000,1.00000000,84.43151855,30.00000000,314572096.00000000,0.00000000,0.00000000,35.00000000,0.05074332,0.27340895,9.76060963,-0.01247616,0.01097912,-0.05045402,0.22465599,0.06827448,-0.51447868,0.00830467,-0.02061634,0.80359310,0.33403262,-0.70078540,11.90201473,0.99946970,0.02939871,0.01399817,0.00041175,0.00558660,-0.00710826,0.04345554,-0.07961692,-0.08913296,0.01072267,21177228.00000000,-0.00000000,-3146434217177513984.00000000,4267.56494141,-3211728715192991744.00000000,0.00000000,-0.00000000,0.00000000,75.03138733,-2594362831801417728.00000000,17729961695711069818766217105637376.00000000,0.00000000
-3.26395941,0.23929322,7.68131208,0.07768843,0.04682591,0.05001858,0.23873901,0.08621216,-0.48257446,0.00000000,-0.00000000,0.31000000,0.00200000,-0.00100000,0.01000000,0.99090046,0.02341807,0.00781642,-0.13231348,-0.01406591,0.03483142,-0.00915250,-0.17399161,0.36444801,-0.13147949,-0.00845297,0.00072571,-0.03937629,0.07446961,0.02680044,-0.00335529,0.02208341,0.01271905,0.01222188,-3.19418979,-2.24027324,13.55857372,0.52359879,0.00000000,0.00000000,2.00000000,0.08158900,0.00000000,1.00000000,84.44968414,30.00000000,314572096.00000000,0.00000000,0.00000000,35.00000000,0.05563501,0.26249006,9.76362038,-0.00829775,0.01573657,-0.04649854,0.22566812,0.06952902,-0.51232433,0.00843955,-0.02089885,0.80366099,0.33405316,-0.70084774,11.90299034,0.99946970,0.02939891,0.01399789,0.00041174,0.00567708,-0.00722342,0.04418046,-0.07961192,-0.08912010,0.01089393,21177228.00000000,-0.00000000,-3146434217177513984.00000000,4267.56494141,-3211728715192991744.00000000,0.00000000,-0.00000000,0.00000000,75.03138733,-2594362831801417728.00000000,17729961695711069818766217105637376.00000000,0.00000000
-1.89520228,1.40704405,8.88974285,0.07555999,0.05959661,0.04469746,0.23873901,0.08621216,-0.48257446,0.00000000,-0.00000000,0.31000000,0.00200000,-0.00100000,0.01000000,0.99090022,0.02342051,0.00782304,-0.13231443,-0.01418887,0.03508896,-0.00924548,-0.17390513,0.36427221,-0.13150328,-0.00845297,0.00072571,-0.03937629,0.07446961,0.02680044,-0.00335529,0.02208341,0.01271905,0.01222188,-3.21202612,-2.26373529,13.55927944,0.52359879,0.00000000,0.00000000,2.00000000,0.08229600,0.00000000,1.00000000,84.45929718,30.00000000,314572096.00000000,0.00000000,0.00000000,35.00000000,0.04562252,0.25240120,9.76577091,-0.00407173,0.02013366,-0.04253131,0.22664326,0.07074536,-0.51023006,0.00851332,-0.02105338,0.80369818,0.33407977,-0.70087248,11.90352058,0.99946970,0.02939864,0.01399838,0.00041175,0.00572659,-0.00728643,0.04457717,-0.07960919,-0.08911306,0.01098765,21177228.00000000,-0.00000000,-3146434217177513984.00000000,4267.56494141,-3211728715192991744.00000000,0.00000000,-0.00000000,0.00000000,75.03138733,-2594362831801417728.00000000,17729961695711069818766217105637376.00000000,0.00000000
0.64369875,1.16057205,11.40232182,0.06811041,0.03831211,0.03511943,0.23873901,0.08621216,-0.48257446,0.00000000,-0.00000000,0.31000000,0.00200000,-0.00100000,0.01000000,0.99090010,0.02342633,0.00783411,-0.13231382,-0.01436284,0.03545335,-0.00937714,-0.17380457,0.36402115,-0.13153437,-0.00845297,0.00072571,-0.03937629,0.07446961,0.02680044,-0.00335529,0.02208341,0.01271905,0.01222188,-3.23074079,-2.28781199,13.56024551,0.52359879,0.00000000,0.00000000,2.00000000,0.08329700,0.00000000,1.00000000,84.47245789,30.00000000,314572096.00000000,0.00000000,0.00000000,35.00000000,0.02481993,0.24477474,9.76826859,0.00014647,0.02421470,-0.03863723,0.22757989,0.07192057,-0.50820023,0.00861771,-0.02127201,0.80375093,0.33415678,-0.70090330,11.90426636,0.99946964,0.02939809,0.01400073,0.00041181,0.00579668,-0.00737566,0.04513891,-0.07960532,-0.08910311,0.01112033,21177228.00000000,-0.00000000,-3146434217177513984.00000000,4267.56494141,-3211728715192991744.00000000,0.00000000,-0.00000000,0.00000000,75.03138733,-2594362831801417728.00000000,17729961695711069818766217105637376.00000000,0.00000000
1.82580721,-0.15314765,12.30206394,0.06172506,0.01064225,0.01277070,0.23745728,0.08712769,-0.48379517,0.00000000,-0.00000000,0.31000000,0.00200000,-0.00100000,0.01000000,0.99090016,0.02343684,0.00785037,-0.13231057,-0.01458710,0.03592288,-0.00954699,-0.17370650,0.36369702,-0.13156575,-0.00845297,0.00072571,-0.03937629,0.07446961,0.02680044,-0.00335529,0.02208341,0.01271905,0.01222188,-3.25032425,-2.31235647,13.56143188,0.52359879,0.00000000,0.00000000,2.00000000,0.08458800,0.00000000,1.00000000,84.48862457,30.00000000,314572096.00000000,0.00000000,0.00000000,35.00000000,0.00075884,0.23855157,9.77478504,0.00430176,0.02796012,-0.03484403,0.22847810,0.07305454,-0.50623965,0.00875226,-0.02155373,0.80381882,0.33431286,-0.70094210,11.90520954,0.99946958,0.02939739,0.01400615,0.00041196,0.00588711,-0.00749073,0.04586346,-0.07960035,-0.08909029,0.01129146,21177228.00000000,-0.00000000,-3146434217177513984.00000000,4267.56494141,-3211728715192991744.00000000,0.00000000,-0.00000000,0.00000000,75.03138733,-2594362831801417728.00000000,17729961695711069818766217105637376.00000000,0.00000000
2.30439353,-0.82316864,10.90698433,0.04789013,-0.04256901,-0.05214703,0.23745728,0.08712769,-0.48379517,0.00000000,-0.00000000,0.31000000,0.00200000,-0.00100000,0.01000000,0.99090034,0.02344419,0.00786024,-0.13230748,-0.01471023,0.03618062,-0.00964028,-0.17366610,0.36351755,-0.13157575,-0.00845297,0.00072571,-0.03937629,0.07446961,0.02680044,-0.00335529,0.02208341,0.01271905,0.01222188,-3.27068114,-2.33713555,13.56204510,0.52359879,0.00000000,0.00000000,2.00000000,0.08529700,0.00000000,1.00000000,84.49697876,30.00000000,314572096.00000000,0.00000000,0.00000000,35.00000000,-0.01745301,0.23214257,9.78490162,0.00834357,0.03126425,-0.03117814,0.22933836,0.07414871,-0.50435311,0.00882614,-0.02170837,0.80385607,0.33442280,-0.70096058,11.90571213,0.99946958,0.02939692,0.01401017,0.00041207,0.00593677,-0.00755393,0.04626139,-0.07959763,-0.08908325,0.01138543,21177228.00000000,-0.00000000,-3146434217177513984.00000000,4267.56494141,-3211728715192991744.00000000,0.00000000,-0.00000000,0.00000000,75.03138733,-2594362831801417728.00000000,17729961695711069818766217105637376.00000000,0.00000000
1.55062008,-0.22732855,10.06706524,0.04150478,-0.08088111,-0.08726646,0.23745728,0.08712769,-0.48379517,0.00000000,-0.00000000,0.31000000,0.00200000,-0.00100000,0.01000000,0.99090064,0.02345667,0.00787520,-0.13230142,-0.01488384,0.03654387,-0.00977186,-0.17361602,0.36325899,-0.13157764,-0.00845297,0.00072571,-0.03937629,0.07446961,0.02680044,-0.00335529,0.02208341,0.01271905,0.01222188,-3.29175949,-2.36188889,13.56285667,0.52359879,0.00000000,0.00000000,2.00000000,0.08629700,0.00000000,1.00000000,84.50803375,30.00000000,314572096.00000000,0.00000000,0.00000000,35.00000000,-0.02327039,0.22584066,9.79728413,0.01222040,0.03394831,-0.02779458,0.23016000,0.07520255,-0.50254416,0.00893031,-0.02192632,0.80390877,0.33459023,-0.70097655,11.90639305,0.99946952,0.02939591,0.01401638,0.00041224,0.00600685,-0.00764306,0.04682268,-0.07959380,-0.08907333,0.01151798,21177228.00000000,-0.00000000,-3146434217177513984.00000000,4267.56494141,-3211728715192991744.00000000,0.00000000,-0.00000000,0.00000000,75.03138733,-2594362831801417728.00000000,17729961695711069818766217105637376.00000000,0.00000000
-0.56233907,0.77052414,10.65094090,0.04256901,-0.10535829,-0.03299098,0.23733521,0.08578491,-0.48391724,0.00000000,-0.00000000,0.31000000,0.00200000,-0.00100000,0.01000000,0.99090135,0.02347533,0.00789537,-0.13229169,-0.01510807,0.03701276,-0.00994183,-0.17354527,0.36291528,-0.13155831,-0.00845297,0.00072571,-0.03937629,0.07446961,0.02680044,-0.00335529,0.02208341,0.01271905,0.01222188,-3.31349611,-2.38628531,13.56381989,0.52359879,0.00000000,0.00000000,2.00000000,0.08758900,0.00000000,1.00000000,84.52115631,30.00000000,314572096.00000000,0.00000000,0.00000000,35.00000000,-0.01761589,0.22094581,9.81450653,0.01589486,0.03583594,-0.02482102,0.23093966,0.07621246,-0.50081623,0.00906484,-0.02220766,0.80397671,0.33479559,-0.70097947,11.90722466,0.99946946,0.02939399,0.01402400,0.00041244,0.00609741,-0.00775823,0.04754791,-0.07958888,-0.08906054,0.01168921,21177228.00000000,-0.00000000,-3146434217177513984.00000000,4267.56494141,-3211728715192991744.00000000,0.00000000,-0.00000000,0.00000000,75.03138733,-2594362831801417728.00000000,17729961695711069818766217105637376.00000000,0.00000000
-2.59393835,0.68437856,10.96920109,0.03831211,-0.11812899,0.00851380,0.23733521,0.08578491,-0.48391724,0.00000000,-0.00000000,0.31000000,0.00200000,-0.00100000,0.01000000,0.99090183,0.02348680,0.00790657,-0.13228546,-0.01523073,0.03726920,-0.01003482,-0.17350185,0.36272210,-0.13153036,-0.00845297,0.00072571,-0.03937629,0.07446961,0.02680044,-0.00335529,0.02208341,0.01271905,0.01222188,-3.33573890,-2.40990376,13.56428719,0.52359879,0.00000000,0.00000000,2.00000000,0.08829600,0.00000000,1.00000000,84.52751923,30.00000000,314572096.00000000,0.00000000,0.00000000,35.00000000,-0.01008043,0.21702072,9.83945942,0.01934201,0.03681725,-0.02222710,0.23167324,0.07717416,-0.49917260,0.00913844,-0.02236152,0.80401391,0.33489951,-0.70097172,11.90764236,0.99946946,0.02939263,0.01402786,0.00041253,0.00614698,-0.00782125,0.04794477,-0.07958620,-0.08905354,0.01178291,21177228.00000000,-0.00000000,-3146434217177513984.00000000,4267.56494141,-3211728715192991744.00000000,0.00000000,-0.00000000,0.00000000,75.03138733,-2594362831801417728.00000000,17729961695711069818766217105637376.00000000,0.00000000
-2.10817313,-0.02632225,9.89716721,0.02554140,-0.10216562,-0.02128450,0.23733521,0.08578491,-0.48391724,0.00000000,-0.00000000,0.31000000,0.00200000,-0.00100000,0.01000000,0.99090260,0.02350464,0.00792223,-0.13227554,-0.01540435,0.03763201,-0.01016642,-0.17344187,0.36244196,-0.13146214,-0.00845297,0.00072571,-0.03937629,0.07446961,0.02680044,-0.00335529,0.02208341,0.01271905,0.01222188,-3.35840464,-2.43237686,13.56485176,0.52359879,0.00000000,0.00000000,2.00000000,0.08929700,0.00000000,1.00000000,84.53521729,30.00000000,314572096.00000000,0.00000000,0.00000000,35.00000000,-0.01078489,0.21181621,9.86833954,0.02252509,0.03688945,-0.01997707,0.23236015,0.07808594,-0.49761435,0.00924261,-0.02257920,0.80406660,0.33504924,-0.70094854,11.90817070,0.99946940,0.02939036,0.01403351,0.00041267,0.00621719,-0.00791047,0.04850664,-0.07958242,-0.08904365,0.01191556,21177228.00000000,-0.00000000,-3146434217177513984.00000000,4267.56494141,-3211728715192991744.00000000,0.00000000,-0.00000000,0.00000000,75.03138733,-2594362831801417728.00000000,17729961695711069818766217105637376.00000000,0.00000000
-2.29482198,-0.04546571,8.90410042,0.01064225,-0.07555999,-0.08088111,0.23751831,0.08657837,-0.48361206,0.00000000,-0.00000000,0.31000000,0.00200000,-0.00100000,0.01000000,0.99090374,0.02352945,0.00794171,-0.13226156,-0.01562836,0.03809981,-0.01033611,-0.17338267,0.36207411,-0.13134274,-0.00845297,0.00072571,-0.03937629,0.07446961,0.02680044,-0.00335529,0.02208341,0.01271905,0.01222188,-3.38139129,-2.45340204,13.56547165,0.52359879,0.00000000,0.00000000,2.00000000,0.09058900,0.00000000,1.00000000,84.54365540,30.00000000,314572096.00000000,0.00000000,0.00000000,35.00000000,-0.02409373,0.20496394,9.89267540,0.02539795,0.03618303,-0.01812129,0.23300360,0.07894858,-0.49613994,0.00937702,-0.02285989,0.80413449,0.33527526,-0.70090681,11.90878201,0.99946940,0.02938710,0.01404226,0.00041288,0.00630784,-0.00802563,0.04923183,-0.07957759,-0.08903089,0.01208675,21177228.00000000,-0.00000000,-3146434217177513984.00000000,4267.56494141,-3211728715192991744.00000000,0.00000000,-0.00000000,0.00000000,75.03138733,-2594362831801417728.00000000,17729961695711069818766217105637376.00000000,0.00000000
-1.10074878,0.68677151,8.63130665,-0.00425690,-0.05427548,-0.09684449,0.23751831,0.08657837,-0.48361206,0.00000000,-0.00000000,0.31000000,0.00200000,-0.00100000,0.01000000,0.99090439,0.02354387,0.00795180,-0.13225341,-0.01575110,0.03835602,-0.01042905,-0.17336813,0.36187291,-0.13126640,-0.00845297,0.00072571,-0.03937629,0.07446961,0.02680044,-0.00335529,0.02208341,0.01271905,0.01222188,-3.40448642,-2.47274184,13.56577206,0.52359879,0.00000000,0.00000000,2.00000000,0.09129700,0.00000000,1.00000000,84.54775238,30.00000000,314572096.00000000,0.00000000,0.00000000,35.00000000,-0.04919775,0.19978996,9.90778446,0.02791933,0.03489809,-0.01668004,0.23360743,0.07976342,-0.49474692,0.00945066,-0.02301361,0.80417168,0.33543137,-0.70088446,11.90909386,0.99946934,0.02938540,0.01404843,0.00041304,0.00635754,-0.00808873,0.04962920,-0.07957495,-0.08902390,0.01218056,21177228.00000000,-0.00000000,-3146434217177513984.00000000,4267.56494141,-3211728715192991744.00000000,0.00000000,-0.00000000,0.00000000,75.03138733,-2594362831801417728.00000000,17729961695711069818766217105637376.00000000,0.00000000
0.49055108,0.83513331,8.95913792,-0.02022028,-0.04256901,-0.06385351,0.23751831,0.08657837,-0.48361206,0.00000000,-0.00000000,0.31000000,0.00200000,-0.00100000,0.01000000,0.99090540,0.02356519,0.00796508,-0.13224138,-0.01592448,0.03871761,-0.01056020,-0.17337677,0.36159536,-0.13115031,-0.00845297,0.00072571,-0.03937629,0.07446961,0.02680044,-0.00335529,0.02208341,0.01271905,0.01222188,-3.42755532,-2.49028587,13.56615543,0.52359879,0.00000000,0.00000000,2.00000000,0.09229700,0.00000000,1.00000000,84.55297852,30.00000000,314572096.00000000,0.00000000,0.00000000,35.00000000,-0.07960312,0.19928497,9.91543579,0.03004534,0.03321737,-0.01557930,0.23417318,0.08053133,-0.49343398,0.00955469,-0.02323057,0.80422413,0.33570439,-0.70086455,11.90951443,0.99946928,0.02938353,0.01405937,0.00041333,0.00642777,-0.00817786,0.05019043,-0.07957125,-0.08901404,0.01231304,21177228.00000000,-0.00000000,-3146434217177513984.00000000,4267.56494141,-3211728715192991744.00000000,0.00000000,-0.00000000,0.00000000,75.03138733,-2594362831801417728.00000000,17729961695711069818766217105637376.00000000,0.00000000
1.46208155,0.19143458,8.92085075,-0.02554140,-0.05214703,-0.04363323,0.23947144,0.08657837,-0.48159790,0.00000000,-0.00000000,0.31000000,0.00200000,-0.00100000,0.01000000,0.99090672,0.02359362,0.00798080,-0.13222538,-0.01614836,0.03918399,-0.01072932,-0.17341983,0.36124817,-0.13099521,-0.00845297,0.00072571,-0.03937629,0.07446961,0.02680044,-0.00335529,0.02208341,0.01271905,0.01222188,-3.45044637,-2.50597668,13.56661797,0.52359879,0.00000000,0.00000000,2.00000000,0.09358800,0.00000000,1.00000000,84.55927277,30.00000000,314572096.00000000,0.00000000,0.00000000,35.00000000,-0.10617944,0.20179458,9.91879463,0.03173108,0.03125573,-0.01476508,0.23470262,0.08125349,-0.49219826,0.00968902,-0.02351039,0.80429173,0.33611444,-0.70085829,11.91004658,0.99946910,0.02938195,0.01407590,0.00041380,0.00651852,-0.00829292,0.05091490,-0.07956651,-0.08900130,0.01248406,21177228.00000000,-0.00000000,-3146434217177513984.00000000,4267.56494141,-3211728715192991744.00000000,0.00000000,-0.00000000,0.00000000,75.03138733,-2594362831801417728.00000000,17729961695711069818766217105637376.00000000,0.00000000
2.09620857,-0.37808329,8.31783199,-0.04256901,-0.08194534,-0.06811041,0.23947144,0.08657837,-0.48159790,0.00000000,-0.00000000,0.31000000,0.00200000,-0.00100000,0.01000000,0.99090749,0.02360956,0.00798859,-0.13221645,-0.01627134,0.03943998,-0.01082213,-0.17345446,0.36106119,-0.13091077,-0.00845297,0.00072571,-0.03937629,0.07446961,0.02680044,-0.00335529,0.02208341,0.01271905,0.01222188,-3.47289824,-2.51976132,13.56686401,0.52359879,0.00000000,0.00000000,2.00000000,0.09429700,0.00000000,1.00000000,84.56262970,30.00000000,314572096.00000000,0.00000000,0.00000000,35.00000000,-0.12264469,0.20298673,9.91734314,0.03293554,0.02902844,-0.01431474,0.23519944,0.08193174,-0.49103466,0.00976281,-0.02366399,0.80432886,0.33635944,-0.70086139,11.91034031,0.99946892,0.02938135,0.01408581,0.00041408,0.00656838,-0.00835610,0.05131275,-0.07956392,-0.08899430,0.01257797,21177228.00000000,-0.00000000,-3146434217177513984.00000000,4267.56494141,-3211728715192991744.00000000,0.00000000,-0.00000000,0.00000000,75.03138733,-2594362831801417728.00000000,17729961695711069818766217105637376.00000000,0.00000000
2.33789468,0.13879006,8.18622112,-0.05214703,-0.11706477,-0.19688165,0.23947144,0.08657837,-0.48159790,0.00000000,-0.00000000,0.31000000,0.00200000,-0.00100000,0.01000000,0.99090856,0.02363221,0.00799827,-0.13220397,-0.01644485,0.03980077,-0.01095293,-0.17350724,0.36079690,-0.13080096,-0.00845297,0.00072571,-0.03937629,0.07446961,0.02680044,-0.00335529,0.02208341,0.01271905,0.01222188,-3.49473500,-2.53156018,13.56721973,0.52359879,0.00000000,0.00000000,2.00000000,0.09529700,0.00000000,1.00000000,84.56747437,30.00000000,314572096.00000000,0.00000000,0.00000000,35.00000000,-0.12634784,0.20143998,9.90804100,0.03362191,0.02646264,-0.01446106,0.23566617,0.08256734,-0.48993996,0.00986691,-0.02388046,0.80438119,0.33671224,-0.70086443,11.91077518,0.99946874,0.02938041,0.01410006,0.00041449,0.00663876,-0.00844522,0.05187386,-0.07956029,-0.08898443,0.01271041,21177228.00000000,-0.00000000,-3146434217177513984.00000000,4267.56494141,-3211728715192991744.00000000,0.00000000,-0.00000000,0.00000000,75.03138733,-2594362831801417728.00000000,17729961695711069818766217105637376.00000000,0.00000000
4.18284559,2.52454329,9.81102180,-0.05640393,-0.13409238,-0.33203825,0.23934937,0.08584595,-0.48165894,0.00000000,-0.00000000,0.31000000,0.00200000,-0.00100000,0.01000000,0.99090981,0.02366131,0.00800885,-0.13218859,-0.01666909,0.04026648,-0.01112177,-0.17356093,0.36045265,-0.13068067,-0.00845297,0.00072571,-0.03937629,0.07446961,0.02680044,-0.00335529,0.02208341,0.01271905,0.01222188,-3.51578140,-2.54125142,13.56771469,0.52359879,0.00000000,0.00000000,2.00000000,0.09658900,0.00000000,1.00000000,84.57421875,30.00000000,314572096.00000000,0.00000000,0.00000000,35.00000000,-0.11486788,0.20209466,9.89156437,0.03378677,0.02346461,-0.01555144,0.23610502,0.08315984,-0.48891193,0.01000145,-0.02415989,0.80444872,0.33714202,-0.70086288,11.91138363,0.99946856,0.02937884,0.01411733,0.00041497,0.00672976,-0.00856034,0.05259877,-0.07955565,-0.08897167,0.01288152,21177228.00000000,-0.00000000,-3146434217177513984.00000000,4267.56494141,-3211728715192991744.00000000,0.00000000,-0.00000000,0.00000000,75.03138733,-2594362831801417728.00000000,17729961695711069818766217105637376.00000000,0.00000000
1.53147662,2.83083868,11.42625046,-0.06811041,-0.10110139,-0.40866247,0.23934937,0.08584595,-0.48165894,0.00000000,-0.00000000,0.31000000,0.00200000,-0.00100000,0.01000000,0.99091041,0.02367697,0.00801348,-0.13218102,-0.01679198,0.04052154,-0.01121426,-0.17357051,0.36026609,-0.13062692,-0.00845297,0.00072571,-0.03937629,0.07446961,0.02680044,-0.00335529,0.02208341,0.01271905,0.01222188,-3.53578186,-2.54872513,13.56800747,0.52359879,0.00000000,0.00000000,2.00000000,0.09729700,0.00000000,1.00000000,84.57820892,30.00000000,314572096.00000000,0.00000000,0.00000000,35.00000000,-0.08835441,0.21178809,9.87451744,0.03345107,0.02002706,-0.01790474,0.23651856,0.08370797,-0.48794773,0.01007519,-0.02431293,0.80448574,0.33734190,-0.70086563,11.91174412,0.99946851,0.02937806,0.01412527,0.00041519,0.00677966,-0.00862342,0.05299601,-0.07955312,-0.08896467,0.01297527,21177228.00000000,-0.00000000,-3146434217177513984.00000000,4267.56494141,-3211728715192991744.00000000,0.00000000,-0.00000000,0.00000000,75.03138733,-2594362831801417728.00000000,17729961695711069818766217105637376.00000000,0.00000000
-2.71119213,0.93085063,10.83758926,-0.07343154,-0.09897294,-0.40972668,0.23934937,0.08584595,-0.48165894,0.00000000,-0.00000000,0.31000000,0.00200000,-0.00100000,0.01000000,0.99091101,0.02369840,0.00801823,-0.13217226,-0.01696536,0.04088120,-0.01134469,-0.17354937,0.36001259,-0.13056277,-0.00845297,0.00072571,-0.03937629,0.07446961,0.02680044,-0.00335529,0.02208341,0.01271905,0.01222188,-3.55458379,-2.55390501,13.56843758,0.52359879,0.00000000,0.00000000,2.00000000,0.09829600,0.00000000,1.00000000,84.58406830,30.00000000,314572096.00000000,0.00000000,0.00000000,35.00000000,-0.05731887,0.23019993,9.86266708,0.03262740,0.01622877,-0.02172190,0.23690759,0.08421219,-0.48704562,0.01017921,-0.02452872,0.80453789,0.33756152,-0.70088673,11.91227818,0.99946839,0.02937763,0.01413383,0.00041544,0.00685010,-0.00871243,0.05355651,-0.07954957,-0.08895480,0.01310755,21177228.00000000,-0.00000000,-3146434217177513984.00000000,4267.56494141,-3211728715192991744.00000000,0.00000000,-0.00000000,0.00000000,75.03138733,-2594362831801417728.00000000,17729961695711069818766217105637376.00000000,0.00000000
-4.97969198,0.68437856,10.92852116,-0.07449576,-0.09152336,-0.34161627,0.24063110,0.08621216,-0.48092651,0.00000000,-0.00000000,0.31000000,0.00200000,-0.00100000,0.01000000,0.99091136,0.02372493,0.00802196,-0.13216439,-0.01718968,0.04134630,-0.01151341,-0.17348886,0.35970485,-0.13048610,-0.00845297,0.00072571,-0.03937629,0.07446961,0.02680044,-0.00335529,0.02208341,0.01271905,0.01222188,-3.57204247,-2.55674839,13.56899929,0.52359879,0.00000000,0.00000000,2.00000000,0.09958900,0.00000000,1.00000000,84.59172058,30.00000000,314572096.00000000,0.00000000,0.00000000,35.00000000,-0.03672887,0.25237429,9.85721493,0.03133386,0.01214380,-0.02704853,0.23727262,0.08467471,-0.48620421,0.01031381,-0.02480778,0.80460542,0.33778608,-0.70095032,11.91298389,0.99946821,0.02937855,0.01414239,0.00041570,0.00694130,-0.00882762,0.05428195,-0.07954501,-0.08894201,0.01327875,21177228.00000000,-0.00000000,-3146434217177513984.00000000,4267.56494141,-3211728715192991744.00000000,0.00000000,-0.00000000,0.00000000,75.03138733,-2594362831801417728.00000000,17729961695711069818766217105637376.00000000,0.00000000
-2.69922733,1.17253673,12.00773335,-0.10429406,-0.04469746,-0.24264334,0.24063110,0.08621216,-0.48092651,0.00000000,-0.00000000,0.31000000,0.00200000,-0.00100000,0.01000000,0.99091130,0.02373862,0.00802265,-0.13216244,-0.01731248,0.04160086,-0.01160576,-0.17344822,0.35955229,-0.13044149,-0.00845297,0.00072571,-0.03937629,0.07446961,0.02680044,-0.00335529,0.02208341,0.01271905,0.01222188,-3.58793998,-2.55728102,13.56929493,0.52359879,0.00000000,0.00000000,2.00000000,0.10029700,0.00000000,1.00000000,84.59574890,30.00000000,314572096.00000000,0.00000000,0.00000000,35.00000000,-0.03253482,0.27729690,9.85992622,0.02956802,0.00791259,-0.03367225,0.23761535,0.08509810,-0.48542148,0.01038749,-0.02496052,0.80464232,0.33789551,-0.70101374,11.91336441,0.99946809,0.02938026,0.01414651,0.00041585,0.00699126,-0.00889069,0.05467917,-0.07954253,-0.08893501,0.01337250,21177228.00000000,-0.00000000,-3146434217177513984.00000000,4267.56494141,-3211728715192991744.00000000,0.00000000,-0.00000000,0.00000000,75.03138733,-2594362831801417728.00000000,17729961695711069818766217105637376.00000000,0.00000000
-0.08853849,-0.72027254,12.24224091,-0.13515660,0.03299098,-0.26392785,0.24063110,0.08621216,-0.48092651,0.00000000,-0.00000000,0.31000000,0.00200000,-0.00100000,0.01000000,0.98980010,0.01337898,0.00028728,-0.14183381,0.00020282,0.00019594,0.00011607,-0.00052536,0.00285276,0.00066414,-0.00845300,0.00072583,-0.03937627,0.07447014,0.02680065,-0.00335496,0.02208381,0.01271915,0.01222205,-3.60210562,-2.55565524,13.56966591,0.52359879,0.00000000,0.00000000,2.00000000,0.10129800,0.00000000,1.00000000,84.60079956,30.00000000,314572096.00000000,0.00000000,0.00000000,35.00000000,-0.04053006,0.30348486,9.87353230,0.02727124,0.00383104,-0.04121994,0.23793721,0.08548438,-0.48469526,-0.00012169,-0.00011756,0.79995358,0.00771805,-0.01423874,11.61509609,0.99999976,0.00061294,0.00033224,0.00000020,0.00699146,-0.00889216,0.05515922,-0.07955536,-0.08893488,0.01351447,21177228.00000000,-0.00000000,-3146434217177513984.00000000,4267.56494141,-3211728715192991744.00000000,0.00000000,-0.00000000,0.00000000,75.03138733,-2594362831801417728.00000000,17729961695711069818766217105637376.00000000,0.00000000
4.20438194,-2.70162034,9.86127377,-0.12983547,0.02766985,-0.31075373,0.23947144,0.08755493,-0.48245239,0.00000000,-0.00000000,0.31000000,0.00200000,-0.00100000,0.01000000,0.98979890,0.01339994,0.00028399,-0.14184023,0.00020203,0.00019972,0.00011710,-0.00061523,0.00292505,0.00079544,-0.00845300,0.00072583,-0.03937627,0.07447014,0.02680065,-0.00335496,0.02208381,0.01271915,0.01222205,-3.61435294,-2.55213881,13.57006073,0.52359879,0.00000000,0.00000000,2.00000000,0.10259000,0.00000000,1.00000000,84.60617828,30.00000000,314572096.00000000,0.00000000,0.00000000,35.00000000,-0.05121303,0.32284203,9.89494801,0.02441302,0.00016215,-0.04939725,0.23823877,0.08583695,-0.48402455,-0.00012122,-0.00011983,0.79995316,0.00788099,-0.01437491,11.61542606,0.99999976,0.00061878,0.00033925,0.00000021,0.00699177,-0.00889412,0.05577873,-0.07957194,-0.08893470,0.01369772,21177228.00000000,-0.00000000,-3146434217177513984.00000000,4267.56494141,-3211728715192991744.00000000,0.00000000,-0.00000000,0.00000000,75.03138733,-2594362831801417728.00000000,17729961695711069818766217105637376.00000000,0.00000000
3.96030259,-1.05528307,6.91796684,-0.10642251,0.00957803,-0.24902868,0.23947144,0.08755493,-0.48245239,0.00000000,-0.00000000,0.31000000,0.00200000,-0.00100000,0.01000000,0.98979783,0.01341008,0.00028128,-0.14184673,0.00020156,0.00020182,0.00011772,-0.00066496,0.00296938,0.00088076,-0.00845300,0.00072583,-0.03937627,0.07447014,0.02680065,-0.00335496,0.02208381,0.01271915,0.01222205,-3.62449288,-2.54703903,13.57023716,0.52359879,0.00000000,0.00000000,2.00000000,0.10329700,0.00000000,1.00000000,84.60858154,30.00000000,314572096.00000000,0.00000000,0.00000000,35.00000000,-0.05392354,0.32981861,9.91381359,0.02106788,-0.00305421,-0.05790220,0.23851983,0.08616064,-0.48340949,-0.00012093,-0.00012109,0.79995292,0.00797121,-0.01445807,11.61557674,0.99999976,0.00062236,0.00034313,0.00000021,0.00699196,-0.00889522,0.05611770,-0.07958102,-0.08893460,0.01379800,21177228.00000000,-0.00000000,-3146434217177513984.00000000,4267.56494141,-3211728715192991744.00000000,0.00000000,-0.00000000,0.00000000,75.03138733,-2594362831801417728.00000000,17729961695711069818766217105637376.00000000,0.00000000
1.81384254,1.90477395,6.87967968,-0.11493631,-0.06704619,-0.12877125,0.23947144,0.08755493,-0.48245239,0.00000000,-0.00000000,0.31000000,0.00200000,-0.00100000,0.01000000,0.98979574,0.01342236,0.00027632,-0.14186010,0.00020083,0.00020485,0.00011873,-0.00072549,0.00302914,0.00100901,-0.00845300,0.00072583,-0.03937627,0.07447014,0.02680065,-0.00335496,0.02208381,0.01271915,0.01222205,-3.63242960,-2.54056382,13.57045841,0.52359879,0.00000000,0.00000000,2.00000000,0.10429700,0.00000000,1.00000000,84.61159515,30.00000000,314572096.00000000,0.00000000,0.00000000,35.00000000,-0.04364986,0.33019626,9.92141914,0.01732506,-0.00595526,-0.06630108,0.23878027,0.08645818,-0.48284906,-0.00012050,-0.00012291,0.79995251,0.00808124,-0.01457048,11.61577320,0.99999976,0.00062718,0.00034786,0.00000022,0.00699226,-0.00889679,0.05659706,-0.07959387,-0.08893444,0.01393986,21177228.00000000,-0.00000000,-3146434217177513984.00000000,4267.56494141,-3211728715192991744.00000000,0.00000000,-0.00000000,0.00000000,75.03138733,-2594362831801417728.00000000,17729961695711069818766217105637376.00000000,0.00000000
2.30917954,2.87869740,8.88256359,-0.12451434,-0.09045914,-0.08088111,0.23855591,0.08804321,-0.48178101,0.00000000,-0.00000000,0.31000000,0.00200000,-0.00100000,0.01000000,0.98979235,0.01343534,0.00026859,-0.14188249,0.00019983,0.00020885,0.00012024,-0.00077135,0.00310111,0.00117046,-0.00845300,0.00072583,-0.03937627,0.07447014,0.02680065,-0.00335496,0.02208381,0.01271915,0.01222205,-3.63807607,-2.53282523,13.57074928,0.52359879,0.00000000,0.00000000,2.00000000,0.10558900,0.00000000,1.00000000,84.61556244,30.00000000,314572096.00000000,0.00000000,0.00000000,35.00000000,-0.01836224,0.33352414,9.91815662,0.01321013,-0.00873515,-0.07427740,0.23901810,0.08673165,-0.48234123,-0.00011990,-0.00012531,0.79995191,0.00816527,-0.01470644,11.61603546,0.99999976,0.00063302,0.00035147,0.00000022,0.00699267,-0.00889888,0.05721628,-0.07961049,-0.08893423,0.01412317,21177228.00000000,-0.00000000,-3146434217177513984.00000000,4267.56494141,-3211728715192991744.00000000,0.00000000,-0.00000000,0.00000000,75.03138733,-2594362831801417728.00000000,17729961695711069818766217105637376.00000000,0.00000000
-0.12921834,2.00288415,10.24653530,-0.11280787,-0.05533971,-0.09897294,0.23855591,0.08804321,-0.48178101,0.00000000,-0.00000000,0.31000000,0.00200000,-0.00100000,0.01000000,0.98979014,0.01344076,0.00026365,-0.14189743,0.00019929,0.00021108,0.00012113,-0.00076764,0.00313956,0.00125256,-0.00845300,0.00072583,-0.03937627,0.07447014,0.02680065,-0.00335496,0.02208381,0.01271915,0.01222205,-3.64134598,-2.52391934,13.57092285,0.52359879,0.00000000,0.00000000,2.00000000,0.10629700,0.00000000,1.00000000,84.61792755,30.00000000,314572096.00000000,0.00000000,0.00000000,35.00000000,0.02123475,0.34350643,9.90904522,0.00877270,-0.01147834,-0.08180243,0.23923002,0.08698389,-0.48188391,-0.00011957,-0.00012665,0.79995155,0.00815941,-0.01477921,11.61619377,0.99999976,0.00063615,0.00035121,0.00000022,0.00699289,-0.00890003,0.05755557,-0.07961959,-0.08893410,0.01422363,21177228.00000000,-0.00000000,-3146434217177513984.00000000,4267.56494141,-3211728715192991744.00000000,0.00000000,-0.00000000,0.00000000,75.03138733,-2594362831801417728.00000000,17729961695711069818766217105637376.00000000,0.00000000
-1.49797547,-0.59344715,8.97110271,-0.09258759,-0.01809183,-0.04363323,0.23855591,0.08804321,-0.48178101,0.00000000,-0.00000000,0.31000000,0.00200000,-0.00100000,0.01000000,0.98978657,0.01344594,0.00025572,-0.14192204,0.00019857,0.00021428,0.00012249,-0.00071733,0.00319558,0.00135511,-0.00845300,0.00072583,-0.03937627,0.07447014,0.02680065,-0.00335496,0.02208381,0.01271915,0.01222205,-3.64223623,-2.51393652,13.57119656,0.52359879,0.00000000,0.00000000,2.00000000,0.10729900,0.00000000,1.00000000,84.62165070,30.00000000,314572096.00000000,0.00000000,0.00000000,35.00000000,0.06413729,0.35743582,9.89525032,0.00414385,-0.01413953,-0.08880845,0.23941581,0.08721654,-0.48147452,-0.00011914,-0.00012857,0.79995102,0.00806993,-0.01488516,11.61644745,0.99999976,0.00064069,0.00034735,0.00000022,0.00699319,-0.00890170,0.05803568,-0.07963248,-0.08893392,0.01436583,21177228.00000000,-0.00000000,-3146434217177513984.00000000,4267.56494141,-3211728715192991744.00000000,0.00000000,-0.00000000,0.00000000,75.03138733,-2594362831801417728.00000000,17729961695711069818766217105637376.00000000,0.00000000
